time,imu_x,imu_y,imu_z,gyro_x,gyro_y,gyro_z,gps_x,gps_y,gps_z,motor_fl,motor_fr,motor_rl,motor_rr
1.01600,0.00000,-0.06974,-3.14159,-0.00000,0.00000,-0.00000,0.00531,-0.00000,0.08571,646.98447,646.98458,651.16899,651.16910
1.02400,0.00000,-0.06974,-3.14159,0.00000,0.00000,-0.00000,0.00531,-0.00000,0.08571,75.55425,75.55437,79.73877,79.73889
1.03200,0.00000,-0.06974,-3.14159,0.00000,0.00000,-0.00000,0.00531,-0.00000,0.08571,75.55608,75.55620,79.74060,79.74071
1.04000,0.00000,-0.06974,-3.14159,0.00000,0.00000,-0.00000,0.00531,-0.00000,0.08571,75.55791,75.55802,79.74243,79.74254
1.04800,0.00000,-0.06974,-3.14159,0.00000,0.00000,-0.00000,0.00531,-0.00000,0.08571,75.55974,75.55985,79.74426,79.74437
1.05600,0.00000,-0.06974,-3.14159,0.00000,0.00000,-0.00000,0.00531,-0.00000,0.08571,75.56157,75.56168,79.74608,79.74620
1.06400,0.00000,-0.06974,-3.14159,0.00000,0.00000,-0.00000,0.00531,-0.00000,0.08571,75.56340,75.56351,79.74791,79.74803
1.07200,0.00000,-0.06974,-3.14159,0.00000,0.00000,-0.00000,0.00531,-0.00000,0.08571,75.56522,75.56534,79.74974,79.74985
1.08000,0.00000,-0.06974,-3.14159,0.00000,0.00000,-0.00000,0.00531,-0.00000,0.08571,75.56705,75.56717,79.75156,79.75168
1.08800,0.00000,-0.06974,-3.14159,0.00000,0.00000,-0.00000,0.00531,-0.00000,0.08571,75.56888,75.56900,79.75339,79.75351
1.09600,0.00000,-0.06974,-3.14159,0.00000,0.00000,-0.00000,0.00531,-0.00000,0.08571,75.57071,75.57083,79.75522,79.75534
1.10400,0.00000,-0.06974,-3.14159,0.00000,0.00000,-0.00000,0.00531,-0.00000,0.08571,75.57254,75.57266,79.75705,79.75716
1.11200,0.00000,-0.06974,-3.14159,0.00000,0.00000,-0.00000,0.00531,-0.00000,0.08571,75.57437,75.57448,79.75887,79.75899
1.12000,0.00000,-0.06974,-3.14159,0.00000,0.00000,-0.00000,0.00531,-0.00000,0.08571,75.57619,75.57631,79.76070,79.76082
1.12800,0.00000,-0.06974,-3.14159,0.00000,0.00000,-0.00000,0.00531,-0.00000,0.08571,75.57802,75.57814,79.76252,79.76264
1.13600,0.00000,-0.06974,-3.14159,0.00000,0.00000,-0.00000,0.00531,-0.00000,0.08571,75.57985,75.57997,79.76435,79.76447
1.14400,0.00000,-0.06974,-3.14159,0.00000,0.00000,-0.00000,0.00531,-0.00000,0.08571,75.58168,75.58180,79.76618,79.76630
1.15200,0.00000,-0.06974,-3.14159,0.00000,0.00000,-0.00000,0.00531,-0.00000,0.08571,75.58351,75.58363,79.76800,79.76812
1.16000,0.00000,-0.06974,-3.14159,0.00000,0.00000,-0.00000,0.00531,-0.00000,0.08571,75.58534,75.58546,79.76983,79.76995
1.16800,0.00000,-0.06974,-3.14159,0.00000,0.00001,-0.00000,0.00531,-0.00000,0.08571,75.58717,75.58729,79.77166,79.77178
1.17600,0.00000,-0.06974,-3.14159,0.00000,0.00001,-0.00000,0.00531,-0.00000,0.08571,75.58900,75.58912,79.77348,79.77360
1.18400,0.00000,-0.06974,-3.14159,0.00000,0.00001,-0.00000,0.00531,-0.00000,0.08571,75.59083,75.59095,79.77531,79.77543
1.19200,0.00000,-0.06974,-3.14159,0.00000,0.00001,-0.00000,0.00531,-0.00000,0.08571,75.59266,75.59278,79.77713,79.77726
1.20000,0.00000,-0.06974,-3.14159,0.00000,0.00001,-0.00000,0.00531,-0.00000,0.08571,75.59448,75.59461,79.77896,79.77908
1.20800,0.00000,-0.06974,-3.14159,0.00000,0.00001,-0.00000,0.00531,-0.00000,0.08571,75.59631,75.59644,79.78078,79.78091
1.21600,0.00000,-0.06974,-3.14159,0.00000,0.00001,-0.00000,0.00531,-0.00000,0.08571,75.59814,75.59827,79.78261,79.78273
1.22400,0.00000,-0.06974,-3.14159,0.00000,0.00001,-0.00000,0.00531,-0.00000,0.08571,75.59997,75.60010,79.78443,79.78456
1.23200,0.00000,-0.06974,-3.14159,0.00000,0.00001,-0.00000,0.00531,-0.00000,0.08571,75.60180,75.60193,79.78626,79.78639
1.24000,0.00000,-0.06974,-3.14159,0.00000,0.00001,-0.00000,0.00531,-0.00000,0.08571,75.60363,75.60376,79.78808,79.78821
1.24800,0.00000,-0.06974,-3.14159,0.00000,0.00001,-0.00000,0.00531,-0.00000,0.08571,75.60546,75.60559,79.78991,79.79004
1.25600,0.00000,-0.06974,-3.14159,0.00000,0.00001,-0.00000,0.00531,-0.00000,0.08571,75.60729,75.60742,79.79173,79.79186
1.26400,0.00000,-0.06974,-3.14159,0.00000,0.00001,-0.00000,0.00531,-0.00000,0.08571,75.60912,75.60925,79.79356,79.79369
1.27200,0.00000,-0.06974,-3.14159,0.00000,0.00001,-0.00000,0.00531,-0.00000,0.08571,75.61095,75.61108,79.79538,79.79551
1.28000,0.00000,-0.06974,-3.14159,0.00000,0.00001,-0.00000,0.00531,-0.00000,0.08571,75.61278,75.61291,79.79721,79.79734
1.28800,0.00000,-0.06974,-3.14159,0.00000,0.00001,-0.00000,0.00531,-0.00000,0.08571,75.61461,75.61474,79.79903,79.79916
1.29600,0.00000,-0.06974,-3.14159,0.00000,0.00001,-0.00000,0.00531,-0.00000,0.08571,75.61644,75.61657,79.80086,79.80099
1.30400,0.00000,-0.06974,-3.14159,0.00000,0.00001,-0.00000,0.00531,-0.00000,0.08571,75.61827,75.61840,79.80268,79.80281
1.31200,0.00000,-0.06974,-3.14159,0.00000,0.00001,-0.00000,0.00531,-0.00000,0.08571,75.62010,75.62024,79.80451,79.80464
1.32000,0.00000,-0.06974,-3.14159,0.00000,0.00001,-0.00000,0.00531,-0.00000,0.08571,75.62193,75.62207,79.80633,79.80646
1.32800,0.00000,-0.06974,-3.14159,0.00000,0.00001,-0.00000,0.00531,-0.00000,0.08571,75.62376,75.62390,79.80815,79.80829
1.33600,0.00000,-0.06974,-3.14159,0.00000,0.00001,-0.00000,0.00531,-0.00000,0.08571,75.62559,75.62573,79.80998,79.81011
1.34400,0.00000,-0.06974,-3.14159,0.00000,0.00001,-0.00000,0.00531,-0.00000,0.08571,75.62742,75.62756,79.81180,79.81194
1.35200,0.00000,-0.06974,-3.14159,0.00000,0.00001,-0.00000,0.00531,-0.00000,0.08571,75.62926,75.62939,79.81362,79.81376
1.36000,0.00000,-0.06974,-3.14159,0.00000,0.00001,-0.00000,0.00531,-0.00000,0.08571,75.63109,75.63122,79.81545,79.81558
1.36800,0.00000,-0.06974,-3.14159,0.00000,0.00001,-0.00000,0.00531,-0.00000,0.08571,75.63292,75.63305,79.81727,79.81741
1.37600,0.00000,-0.06974,-3.14159,0.00000,0.00001,-0.00000,0.00531,-0.00000,0.08571,75.63475,75.63489,79.81910,79.81923
1.38400,0.00000,-0.06974,-3.14159,0.00000,0.00001,-0.00000,0.00531,-0.00000,0.08571,75.63658,75.63672,79.82092,79.82106
1.39200,0.00000,-0.06974,-3.14159,0.00000,0.00001,-0.00000,0.00531,-0.00000,0.08571,75.63841,75.63855,79.82274,79.82288
1.40000,0.00000,-0.06974,-3.14159,0.00000,0.00002,-0.00000,0.00531,-0.00000,0.08571,75.64024,75.64038,79.82456,79.82470
1.40800,0.00000,-0.06974,-3.14159,0.00000,0.00002,-0.00000,0.00531,-0.00000,0.08571,75.64207,75.64221,79.82639,79.82653
1.41600,0.00000,-0.06974,-3.14159,0.00000,0.00002,-0.00000,0.00531,-0.00000,0.08571,75.64390,75.64404,79.82821,79.82835
1.42400,0.00000,-0.06974,-3.14159,0.00000,0.00002,-0.00000,0.00531,-0.00000,0.08571,75.64574,75.64588,79.83003,79.83017
1.43200,0.00000,-0.06974,-3.14159,0.00000,0.00002,-0.00000,0.00531,-0.00000,0.08571,75.64757,75.64771,79.83186,79.83200
1.44000,0.00000,-0.06974,-3.14159,0.00000,0.00002,-0.00000,0.00531,-0.00000,0.08571,75.64940,75.64954,79.83368,79.83382
1.44800,0.00000,-0.06974,-3.14159,0.00000,0.00002,-0.00000,0.00531,-0.00000,0.08571,75.65123,75.65137,79.83550,79.83564
1.45600,0.00000,-0.06974,-3.14159,0.00000,0.00002,-0.00000,0.00531,-0.00000,0.08571,75.65306,75.65320,79.83732,79.83747
1.46400,0.00000,-0.06974,-3.14159,0.00000,0.00002,-0.00000,0.00531,-0.00000,0.08571,75.65489,75.65504,79.83915,79.83929
1.47200,0.00000,-0.06974,-3.14159,0.00000,0.00002,-0.00000,0.00531,-0.00000,0.08571,75.65672,75.65687,79.84097,79.84111
1.48000,0.00000,-0.06974,-3.14159,0.00000,0.00002,-0.00000,0.00531,-0.00000,0.08571,75.65856,75.65870,79.84279,79.84294
1.48800,0.00000,-0.06974,-3.14159,0.00000,0.00002,-0.00000,0.00531,-0.00000,0.08571,75.66039,75.66053,79.84461,79.84476
1.49600,0.00000,-0.06974,-3.14159,0.00000,0.00002,-0.00000,0.00531,-0.00000,0.08571,75.66222,75.66237,79.84644,79.84658
1.50400,0.00000,-0.06974,-3.14159,0.00000,0.00002,-0.00000,0.00531,-0.00000,0.08571,75.66405,75.66420,79.84826,79.84840
1.51200,0.00000,-0.06974,-3.14159,0.00000,0.00002,-0.00000,0.00531,-0.00000,0.08571,75.66588,75.66603,79.85008,79.85023
1.52000,0.00000,-0.06974,-3.14159,0.00000,0.00002,-0.00000,0.00531,-0.00000,0.08571,75.66772,75.66786,79.85190,79.85205
1.52800,0.00000,-0.06974,-3.14159,0.00000,0.00002,-0.00000,0.00531,-0.00000,0.08571,75.66955,75.66970,79.85372,79.85387
1.53600,0.00000,-0.06974,-3.14159,0.00000,0.00002,-0.00000,0.00531,-0.00000,0.08571,75.67138,75.67153,79.85554,79.85569
1.54400,0.00000,-0.06974,-3.14159,0.00000,0.00002,-0.00000,0.00531,-0.00000,0.08571,75.67321,75.67336,79.85737,79.85751
1.55200,0.00000,-0.06974,-3.14159,0.00000,0.00002,-0.00000,0.00531,-0.00000,0.08571,75.67505,75.67520,79.85919,79.85934
1.56000,0.00000,-0.06974,-3.14159,0.00000,0.00002,-0.00000,0.00531,-0.00000,0.08571,75.67688,75.67703,79.86101,79.86116
1.56800,0.00000,-0.06974,-3.14159,0.00000,0.00002,-0.00000,0.00531,-0.00000,0.08571,75.67871,75.67886,79.86283,79.86298
1.57600,0.00000,-0.06974,-3.14159,0.00000,0.00002,-0.00000,0.00531,-0.00000,0.08571,75.68054,75.68070,79.86465,79.86480
1.58400,0.00000,-0.06974,-3.14159,0.00000,0.00002,-0.00000,0.00531,-0.00000,0.08571,75.68238,75.68253,79.86647,79.86662
1.59200,0.00000,-0.06974,-3.14159,0.00000,0.00002,-0.00000,0.00531,-0.00000,0.08571,75.68421,75.68436,79.86829,79.86844
1.60000,0.00000,-0.06974,-3.14159,0.00000,0.00002,-0.00000,0.00531,-0.00000,0.08571,75.68604,75.68620,79.87011,79.87027
1.60800,0.00000,-0.06974,-3.14159,0.00000,0.00002,-0.00000,0.00531,-0.00000,0.08571,75.68788,75.68803,79.87193,79.87209
1.61600,0.00000,-0.06973,-3.14159,0.00000,0.00002,-0.00000,0.00531,-0.00000,0.08571,75.68971,75.68986,79.87375,79.87391
1.62400,0.00000,-0.06973,-3.14159,0.00000,0.00002,-0.00000,0.00531,-0.00000,0.08571,75.69154,75.69170,79.87557,79.87573
1.63200,0.00000,-0.06973,-3.14159,0.00000,0.00003,-0.00000,0.00531,-0.00000,0.08571,75.69338,75.69353,79.87739,79.87755
1.64000,0.00000,-0.06973,-3.14159,0.00000,0.00003,-0.00000,0.00531,-0.00000,0.08571,75.69521,75.69537,79.87921,79.87937
1.64800,0.00000,-0.06973,-3.14159,0.00000,0.00003,-0.00000,0.00531,-0.00000,0.08571,75.69704,75.69720,79.88103,79.88119
1.65600,0.00000,-0.06973,-3.14159,0.00000,0.00003,-0.00000,0.00531,-0.00000,0.08571,75.69888,75.69903,79.88285,79.88301
1.66400,0.00000,-0.06973,-3.14159,0.00000,0.00003,-0.00000,0.00531,-0.00000,0.08571,75.70071,75.70087,79.88467,79.88483
1.67200,0.00000,-0.06973,-3.14159,0.00000,0.00003,-0.00000,0.00531,-0.00000,0.08571,75.70254,75.70270,79.88649,79.88665
1.68000,0.00000,-0.06973,-3.14159,0.00000,0.00003,-0.00000,0.00531,-0.00000,0.08571,75.70438,75.70454,79.88831,79.88847
1.68800,0.00000,-0.06973,-3.14159,0.00000,0.00003,-0.00000,0.00531,-0.00000,0.08571,75.70621,75.70637,79.89013,79.89029
1.69600,0.00000,-0.06973,-3.14159,0.00000,0.00003,-0.00000,0.00531,-0.00000,0.08571,75.70804,75.70820,79.89195,79.89211
1.70400,0.00000,-0.06973,-3.14159,0.00000,0.00003,-0.00000,0.00531,-0.00000,0.08571,75.70988,75.71004,79.89377,79.89393
1.71200,0.00000,-0.06973,-3.14159,0.00000,0.00003,-0.00000,0.00531,-0.00000,0.08571,75.71171,75.71187,79.89559,79.89575
1.72000,0.00000,-0.06973,-3.14159,0.00000,0.00003,-0.00000,0.00531,-0.00000,0.08571,75.71355,75.71371,79.89741,79.89757
1.72800,0.00000,-0.06973,-3.14159,0.00000,0.00003,-0.00000,0.00531,-0.00000,0.08571,75.71538,75.71554,79.89923,79.89939
1.73600,0.00000,-0.06973,-3.14159,0.00000,0.00003,-0.00000,0.00531,-0.00000,0.08571,75.71721,75.71738,79.90105,79.90121
1.74400,0.00000,-0.06973,-3.14159,0.00000,0.00003,-0.00000,0.00531,-0.00000,0.08571,75.71905,75.71921,79.90287,79.90303
1.75200,0.00000,-0.06973,-3.14159,0.00000,0.00003,-0.00000,0.00531,-0.00000,0.08571,75.72088,75.72105,79.90469,79.90485
1.76000,0.00000,-0.06973,-3.14159,0.00000,0.00003,-0.00000,0.00531,-0.00000,0.08571,75.72272,75.72288,79.90651,79.90667
1.76800,0.00000,-0.06973,-3.14159,0.00000,0.00003,-0.00000,0.00531,-0.00000,0.08571,75.72455,75.72472,79.90833,79.90849
1.77600,0.00000,-0.06973,-3.14159,0.00000,0.00003,-0.00000,0.00531,-0.00000,0.08571,75.72639,75.72655,79.91014,79.91031
1.78400,0.00000,-0.06973,-3.14159,0.00000,0.00003,-0.00000,0.00531,-0.00000,0.08571,75.72822,75.72839,79.91196,79.91213
1.79200,0.00000,-0.06973,-3.14159,0.00000,0.00003,-0.00000,0.00531,-0.00000,0.08571,75.73006,75.73022,79.91378,79.91395
1.80000,0.00000,-0.06973,-3.14159,0.00000,0.00003,-0.00000,0.00531,-0.00000,0.08571,75.73189,75.73206,79.91560,79.91577
1.80800,0.00000,-0.06973,-3.14159,0.00000,0.00003,-0.00000,0.00531,-0.00000,0.08571,75.73373,75.73389,79.91742,79.91759
1.81600,0.00000,-0.06973,-3.14159,0.00000,0.00003,-0.00000,0.00531,-0.00000,0.08571,75.73556,75.73573,79.91924,79.91941
1.82400,0.00000,-0.06973,-3.14159,0.00000,0.00003,-0.00000,0.00531,-0.00000,0.08571,75.73740,75.73756,79.92105,79.92122
1.83200,0.00000,-0.06973,-3.14159,0.00000,0.00003,-0.00000,0.00531,-0.00000,0.08571,75.73923,75.73940,79.92287,79.92304
1.84000,0.00000,-0.06973,-3.14159,0.00000,0.00003,-0.00000,0.00531,-0.00000,0.08571,75.74107,75.74124,79.92469,79.92486
1.84800,0.00000,-0.06973,-3.14159,0.00000,0.00003,-0.00000,0.00531,-0.00000,0.08571,75.74290,75.74307,79.92651,79.92668
1.85600,0.00000,-0.06973,-3.14159,0.00000,0.00003,-0.00000,0.00531,-0.00000,0.08571,75.74474,75.74491,79.92833,79.92850
1.86400,0.00000,-0.06973,-3.14159,0.00000,0.00004,-0.00000,0.00531,-0.00000,0.08571,75.74657,75.74674,79.93014,79.93032
1.87200,0.00000,-0.06973,-3.14159,0.00000,0.00004,-0.00000,0.00531,-0.00000,0.08571,75.74841,75.74858,79.93196,79.93213
1.88000,0.00000,-0.06973,-3.14159,0.00000,0.00004,-0.00000,0.00531,-0.00000,0.08571,75.75024,75.75042,79.93378,79.93395
1.88800,0.00000,-0.06973,-3.14159,0.00000,0.00004,-0.00000,0.00531,-0.00000,0.08571,75.75208,75.75225,79.93560,79.93577
1.89600,0.00000,-0.06973,-3.14159,0.00000,0.00004,-0.00000,0.00531,-0.00000,0.08571,75.75391,75.75409,79.93741,79.93759
1.90400,0.00000,-0.06973,-3.14159,0.00000,0.00004,-0.00000,0.00531,-0.00000,0.08572,75.75575,75.75592,79.93923,79.93941
1.91200,0.00000,-0.06973,-3.14159,0.00000,0.00004,-0.00000,0.00531,-0.00000,0.08572,75.75758,75.75776,79.94105,79.94122
1.92000,0.00000,-0.06973,-3.14159,0.00000,0.00004,-0.00000,0.00531,-0.00000,0.08572,75.75942,75.75960,79.94286,79.94304
1.92800,0.00000,-0.06973,-3.14159,0.00000,0.00004,-0.00000,0.00531,-0.00000,0.08572,75.76126,75.76143,79.94468,79.94486
1.93600,0.00000,-0.06972,-3.14159,0.00000,0.00004,-0.00000,0.00531,-0.00000,0.08572,75.76309,75.76327,79.94650,79.94668
1.94400,0.00000,-0.06972,-3.14159,0.00000,0.00004,-0.00000,0.00531,-0.00000,0.08572,75.76493,75.76511,79.94831,79.94849
1.95200,0.00000,-0.06972,-3.14159,0.00000,0.00004,-0.00000,0.00531,-0.00000,0.08572,75.76676,75.76694,79.95013,79.95031
1.96000,0.00000,-0.06972,-3.14159,0.00000,0.00004,-0.00000,0.00531,-0.00000,0.08572,75.76860,75.76878,79.95195,79.95213
1.96800,0.00000,-0.06972,-3.14159,0.00000,0.00004,-0.00000,0.00531,-0.00000,0.08572,75.77044,75.77062,79.95376,79.95394
1.97600,0.00000,-0.06972,-3.14159,0.00000,0.00004,-0.00000,0.00531,-0.00000,0.08572,75.77227,75.77245,79.95558,79.95576
1.98400,0.00000,-0.06972,-3.14159,0.00000,0.00004,-0.00000,0.00531,-0.00000,0.08572,75.77411,75.77429,79.95740,79.95758
1.99200,0.00000,-0.06972,-3.14159,0.00000,0.00004,-0.00000,0.00531,-0.00000,0.08572,75.77595,75.77613,79.95921,79.95940
2.00000,0.00000,-0.06972,-3.14159,0.00000,0.00004,-0.00000,0.00531,-0.00000,0.08572,75.77778,75.77797,79.96103,79.96121
2.00800,0.00000,-0.06972,-3.14159,0.00000,0.00004,-0.00000,0.00531,-0.00000,0.08572,75.77962,75.77980,79.96284,79.96303
2.01600,0.00000,-0.06972,-3.14159,0.00000,0.00004,-0.00000,0.00531,-0.00000,0.08572,75.78146,75.78164,79.96466,79.96484
2.02400,0.00000,-0.06972,-3.14159,0.00000,0.00004,-0.00000,0.00531,-0.00000,0.08572,75.78329,75.78348,79.96648,79.96666
2.03200,0.00000,-0.06972,-3.14159,0.00000,0.00004,-0.00000,0.00531,-0.00000,0.08572,75.78513,75.78532,79.96829,79.96848
2.04000,0.00000,-0.06972,-3.14159,0.00000,0.00004,-0.00000,0.00531,-0.00000,0.08572,75.78697,75.78715,79.97011,79.97029
2.04800,0.00000,-0.06972,-3.14159,0.00000,0.00004,-0.00000,0.00531,-0.00000,0.08572,75.78880,75.78899,79.97192,79.97211
2.05600,0.00000,-0.06972,-3.14159,0.00000,0.00004,-0.00000,0.00531,-0.00000,0.08572,75.79064,75.79083,79.97374,79.97393
2.06400,0.00000,-0.06972,-3.14159,0.00000,0.00004,-0.00000,0.00531,-0.00000,0.08572,75.79248,75.79267,79.97555,79.97574
2.07200,0.00000,-0.06972,-3.14159,0.00000,0.00004,-0.00000,0.00531,-0.00000,0.08572,75.79432,75.79450,79.97737,79.97756
2.08000,0.00000,-0.06972,-3.14159,0.00000,0.00004,-0.00000,0.00531,-0.00000,0.08572,75.79615,75.79634,79.97918,79.97937
2.08800,0.00000,-0.06972,-3.14159,0.00000,0.00005,-0.00000,0.00531,-0.00000,0.08572,75.79799,75.79818,79.98100,79.98119
2.09600,0.00000,-0.06972,-3.14159,0.00000,0.00005,-0.00000,0.00531,-0.00000,0.08572,75.79983,75.80002,79.98281,79.98300
2.10400,0.00000,-0.06972,-3.14159,0.00000,0.00005,-0.00000,0.00531,-0.00000,0.08572,75.80167,75.80186,79.98463,79.98482
2.11200,0.00000,-0.06972,-3.14159,0.00000,0.00005,-0.00000,0.00531,-0.00000,0.08572,75.80350,75.80369,79.98644,79.98663
2.12000,0.00000,-0.06972,-3.14159,0.00000,0.00005,-0.00000,0.00531,-0.00000,0.08572,75.80534,75.80553,79.98826,79.98845
2.12800,0.00000,-0.06972,-3.14159,0.00000,0.00005,-0.00000,0.00531,-0.00000,0.08572,75.80718,75.80737,79.99007,79.99026
2.13600,0.00000,-0.06972,-3.14159,0.00000,0.00005,-0.00000,0.00531,-0.00000,0.08572,75.80902,75.80921,79.99189,79.99208
2.14400,0.00000,-0.06972,-3.14159,0.00000,0.00005,-0.00000,0.00531,-0.00000,0.08572,75.81085,75.81105,79.99370,79.99389
2.15200,0.00000,-0.06972,-3.14159,0.00000,0.00005,-0.00000,0.00531,-0.00000,0.08572,75.81269,75.81289,79.99552,79.99571
2.16000,0.00000,-0.06971,-3.14159,0.00000,0.00005,-0.00000,0.00531,-0.00000,0.08572,75.81453,75.81472,79.99733,79.99752
2.16800,0.00000,-0.06971,-3.14159,0.00000,0.00005,-0.00000,0.00531,-0.00000,0.08572,75.81637,75.81656,79.99914,79.99934
2.17600,0.00000,-0.06971,-3.14159,0.00000,0.00005,-0.00000,0.00531,-0.00000,0.08572,75.81821,75.81840,80.00096,80.00115
2.18400,0.00000,-0.06971,-3.14159,0.00000,0.00005,-0.00000,0.00531,-0.00000,0.08572,75.82004,75.82024,80.00277,80.00297
2.19200,0.00000,-0.06971,-3.14159,0.00000,0.00005,-0.00000,0.00531,-0.00000,0.08572,75.82188,75.82208,80.00458,80.00478
2.20000,0.00000,-0.06971,-3.14159,0.00000,0.00005,-0.00000,0.00531,-0.00000,0.08572,75.82372,75.82392,80.00640,80.00660
2.20800,0.00000,-0.06971,-3.14159,0.00000,0.00005,-0.00000,0.00531,-0.00000,0.08572,75.82556,75.82576,80.00821,80.00841
2.21600,0.00000,-0.06971,-3.14159,0.00000,0.00005,-0.00000,0.00531,-0.00000,0.08572,75.82740,75.82760,80.01003,80.01022
2.22400,0.00000,-0.06971,-3.14159,0.00000,0.00005,-0.00000,0.00531,-0.00000,0.08572,75.82924,75.82944,80.01184,80.01204
2.23200,0.00000,-0.06971,-3.14159,0.00000,0.00005,-0.00000,0.00531,-0.00000,0.08572,75.83108,75.83128,80.01365,80.01385
2.24000,0.00000,-0.06971,-3.14159,0.00000,0.00005,-0.00000,0.00531,-0.00000,0.08572,75.83291,75.83311,80.01546,80.01567
2.24800,0.00000,-0.06971,-3.14159,0.00000,0.00005,-0.00000,0.00531,-0.00000,0.08572,75.83475,75.83495,80.01728,80.01748
2.25600,0.00000,-0.06971,-3.14159,0.00000,0.00005,-0.00000,0.00531,-0.00000,0.08572,75.83659,75.83679,80.01909,80.01929
2.26400,0.00000,-0.06971,-3.14159,0.00000,0.00005,-0.00000,0.00531,-0.00000,0.08572,75.83843,75.83863,80.02090,80.02111
2.27200,0.00000,-0.06971,-3.14159,0.00000,0.00005,-0.00000,0.00531,-0.00000,0.08572,75.84027,75.84047,80.02272,80.02292
2.28000,0.00000,-0.06971,-3.14159,0.00000,0.00005,-0.00000,0.00531,-0.00000,0.08572,75.84211,75.84231,80.02453,80.02473
2.28800,0.00000,-0.06971,-3.14159,0.00000,0.00005,-0.00000,0.00531,-0.00000,0.08572,75.84395,75.84415,80.02634,80.02655
2.29600,0.00000,-0.06971,-3.14159,0.00000,0.00005,-0.00000,0.00531,-0.00000,0.08572,75.84579,75.84599,80.02815,80.02836
2.30400,0.00000,-0.06971,-3.14159,0.00000,0.00005,-0.00000,0.00531,-0.00000,0.08572,75.84763,75.84783,80.02997,80.03017
2.31200,0.00000,-0.06971,-3.14159,0.00000,0.00005,-0.00000,0.00531,-0.00000,0.08572,75.84947,75.84967,80.03178,80.03198
2.32000,0.00000,-0.06971,-3.14159,0.00000,0.00006,-0.00000,0.00531,-0.00000,0.08572,75.85131,75.85151,80.03359,80.03380
2.32800,0.00000,-0.06971,-3.14159,0.00000,0.00006,-0.00000,0.00531,-0.00000,0.08572,75.85315,75.85335,80.03540,80.03561
2.33600,0.00000,-0.06971,-3.14159,0.00000,0.00006,-0.00000,0.00531,-0.00000,0.08572,75.85498,75.85519,80.03722,80.03742
2.34400,0.00000,-0.06971,-3.14159,0.00000,0.00006,-0.00000,0.00531,-0.00000,0.08572,75.85682,75.85703,80.03903,80.03923
2.35200,0.00000,-0.06970,-3.14159,0.00000,0.00006,-0.00000,0.00531,-0.00000,0.08572,75.85866,75.85887,80.04084,80.04105
2.36000,0.00000,-0.06970,-3.14159,0.00000,0.00006,-0.00000,0.00531,-0.00000,0.08572,75.86050,75.86071,80.04265,80.04286
2.36800,0.00000,-0.06970,-3.14159,0.00000,0.00006,-0.00000,0.00531,-0.00000,0.08572,75.86234,75.86255,80.04446,80.04467
2.37600,0.00000,-0.06970,-3.14159,0.00000,0.00006,-0.00000,0.00531,-0.00000,0.08572,75.86418,75.86439,80.04627,80.04648
2.38400,0.00000,-0.06970,-3.14159,0.00000,0.00006,-0.00000,0.00531,-0.00000,0.08572,75.86602,75.86623,80.04809,80.04830
2.39200,0.00000,-0.06970,-3.14159,0.00000,0.00006,-0.00000,0.00531,-0.00000,0.08572,75.86786,75.86808,80.04990,80.05011
2.40000,0.00000,-0.06970,-3.14159,0.00000,0.00006,-0.00000,0.00531,-0.00000,0.08572,75.86970,75.86992,80.05171,80.05192
2.40800,0.00000,-0.06970,-3.14159,0.00000,0.00006,-0.00000,0.00531,-0.00000,0.08572,75.87154,75.87176,80.05352,80.05373
2.41600,0.00000,-0.06970,-3.14159,0.00000,0.00006,-0.00000,0.00531,-0.00000,0.08572,75.87339,75.87360,80.05533,80.05554
2.42400,0.00000,-0.06970,-3.14159,0.00000,0.00006,-0.00000,0.00531,-0.00000,0.08572,75.87523,75.87544,80.05714,80.05735
2.43200,0.00000,-0.06970,-3.14159,0.00000,0.00006,-0.00000,0.00531,-0.00000,0.08573,75.87707,75.87728,80.05895,80.05917
2.44000,0.00000,-0.06970,-3.14159,0.00000,0.00006,-0.00000,0.00531,-0.00000,0.08573,75.87891,75.87912,80.06076,80.06098
2.44800,0.00000,-0.06970,-3.14159,0.00000,0.00006,-0.00000,0.00531,-0.00000,0.08573,75.88075,75.88096,80.06257,80.06279
2.45600,0.00000,-0.06970,-3.14159,0.00000,0.00006,-0.00000,0.00531,-0.00000,0.08573,75.88259,75.88280,80.06438,80.06460
2.46400,0.00000,-0.06970,-3.14159,0.00000,0.00006,-0.00000,0.00531,-0.00000,0.08573,75.88443,75.88465,80.06619,80.06641
2.47200,0.00000,-0.06970,-3.14159,0.00000,0.00006,-0.00000,0.00531,-0.00000,0.08573,75.88627,75.88649,80.06800,80.06822
2.48000,0.00000,-0.06970,-3.14159,0.00000,0.00006,-0.00000,0.00531,-0.00000,0.08573,75.88811,75.88833,80.06982,80.07003
2.48800,0.00000,-0.06970,-3.14159,0.00000,0.00006,-0.00000,0.00531,-0.00000,0.08573,75.88995,75.89017,80.07163,80.07184
2.49600,0.00000,-0.06970,-3.14159,0.00000,0.00006,-0.00000,0.00531,-0.00000,0.08573,75.89179,75.89201,80.07344,80.07365
2.50400,0.00000,-0.06970,-3.14159,0.00000,0.00006,-0.00000,0.00531,-0.00000,0.08573,75.89363,75.89385,80.07525,80.07546
2.51200,0.00000,-0.06970,-3.14159,0.00000,0.00006,-0.00000,0.00531,-0.00000,0.08573,75.89548,75.89570,80.07706,80.07728
2.52000,0.00000,-0.06969,-3.14159,0.00000,0.00006,-0.00000,0.00531,-0.00000,0.08573,75.89732,75.89754,80.07887,80.07909
2.52800,0.00000,-0.06969,-3.14159,0.00000,0.00006,-0.00000,0.00531,-0.00000,0.08573,75.89916,75.89938,80.08067,80.08090
2.53600,0.00000,-0.06969,-3.14159,0.00000,0.00006,-0.00000,0.00531,-0.00000,0.08573,75.90100,75.90122,80.08248,80.08271
2.54400,0.00000,-0.06969,-3.14159,0.00000,0.00006,-0.00000,0.00531,-0.00000,0.08573,75.90284,75.90306,80.08429,80.08452
2.55200,0.00000,-0.06969,-3.14159,0.00000,0.00007,-0.00000,0.00531,-0.00000,0.08573,75.90468,75.90491,80.08610,80.08633
2.56000,0.00000,-0.06969,-3.14159,0.00000,0.00007,-0.00000,0.00531,-0.00000,0.08573,75.90652,75.90675,80.08791,80.08814
2.56800,0.00000,-0.06969,-3.14159,0.00000,0.00007,-0.00000,0.00531,-0.00000,0.08573,75.90837,75.90859,80.08972,80.08995
2.57600,0.00000,-0.06969,-3.14159,0.00000,0.00007,-0.00000,0.00531,-0.00000,0.08573,75.91021,75.91043,80.09153,80.09176
2.58400,0.00000,-0.06969,-3.14159,0.00000,0.00007,-0.00000,0.00531,-0.00000,0.08573,75.91205,75.91227,80.09334,80.09357
2.59200,0.00000,-0.06969,-3.14159,0.00000,0.00007,-0.00000,0.00531,-0.00000,0.08573,75.91389,75.91412,80.09515,80.09538
2.60000,0.00000,-0.06969,-3.14159,0.00000,0.00007,-0.00000,0.00531,-0.00000,0.08573,75.91573,75.91596,80.09696,80.09718
2.60800,0.00000,-0.06969,-3.14159,0.00000,0.00007,-0.00000,0.00531,-0.00000,0.08573,75.91758,75.91780,80.09877,80.09899
2.61600,0.00000,-0.06969,-3.14159,0.00000,0.00007,-0.00000,0.00531,-0.00000,0.08573,75.91942,75.91965,80.10058,80.10080
2.62400,0.00000,-0.06969,-3.14159,0.00000,0.00007,-0.00000,0.00531,-0.00000,0.08573,75.92126,75.92149,80.10238,80.10261
2.63200,0.00000,-0.06969,-3.14159,0.00000,0.00007,-0.00000,0.00531,-0.00000,0.08573,75.92310,75.92333,80.10419,80.10442
2.64000,0.00000,-0.06969,-3.14159,0.00000,0.00007,-0.00000,0.00531,-0.00000,0.08573,75.92494,75.92517,80.10600,80.10623
2.64800,0.00000,-0.06969,-3.14159,0.00000,0.00007,-0.00000,0.00531,-0.00000,0.08573,75.92679,75.92702,80.10781,80.10804
2.65600,0.00000,-0.06969,-3.14159,0.00000,0.00007,-0.00000,0.00531,-0.00000,0.08573,75.92863,75.92886,80.10962,80.10985
2.66400,0.00000,-0.06968,-3.14159,0.00000,0.00007,-0.00000,0.00531,-0.00000,0.08573,75.93047,75.93070,80.11143,80.11166
2.67200,0.00000,-0.06968,-3.14159,0.00000,0.00007,-0.00000,0.00531,-0.00000,0.08573,75.93231,75.93255,80.11323,80.11347
2.68000,0.00000,-0.06968,-3.14159,0.00000,0.00007,-0.00000,0.00531,-0.00000,0.08573,75.93416,75.93439,80.11504,80.11527
2.68800,0.00000,-0.06968,-3.14159,0.00000,0.00007,-0.00000,0.00531,-0.00000,0.08573,75.93600,75.93623,80.11685,80.11708
2.69600,0.00000,-0.06968,-3.14159,0.00000,0.00007,-0.00000,0.00531,-0.00000,0.08573,75.93784,75.93808,80.11866,80.11889
2.70400,0.00000,-0.06968,-3.14159,0.00000,0.00007,-0.00000,0.00531,-0.00000,0.08573,75.93969,75.93992,80.12046,80.12070
2.71200,0.00000,-0.06968,-3.14159,0.00000,0.00007,-0.00000,0.00531,-0.00000,0.08573,75.94153,75.94176,80.12227,80.12251
2.72000,0.00000,-0.06968,-3.14159,0.00000,0.00007,-0.00000,0.00531,-0.00000,0.08573,75.94337,75.94361,80.12408,80.12431
2.72800,0.00000,-0.06968,-3.14159,0.00000,0.00007,-0.00000,0.00531,-0.00000,0.08573,75.94522,75.94545,80.12589,80.12612
2.73600,0.00000,-0.06968,-3.14159,0.00000,0.00007,-0.00000,0.00531,-0.00000,0.08573,75.94706,75.94730,80.12769,80.12793
2.74400,0.00000,-0.06968,-3.14159,0.00000,0.00007,-0.00000,0.00531,-0.00000,0.08573,75.94890,75.94914,80.12950,80.12974
2.75200,0.00000,-0.06968,-3.14159,0.00000,0.00007,-0.00000,0.00531,-0.00000,0.08573,75.95075,75.95098,80.13131,80.13155
2.76000,0.00000,-0.06968,-3.14159,0.00000,0.00007,-0.00000,0.00531,-0.00000,0.08573,75.95259,75.95283,80.13312,80.13335
2.76800,0.00000,-0.06968,-3.14159,0.00000,0.00007,-0.00000,0.00531,-0.00000,0.08573,75.95443,75.95467,80.13492,80.13516
2.77600,0.00000,-0.06968,-3.14159,0.00000,0.00007,-0.00000,0.00531,-0.00000,0.08573,75.95628,75.95652,80.13673,80.13697
2.78400,0.00000,-0.06968,-3.14159,0.00000,0.00008,-0.00000,0.00531,-0.00000,0.08573,75.95812,75.95836,80.13854,80.13878
2.79200,0.00000,-0.06968,-3.14159,0.00000,0.00008,-0.00000,0.00531,-0.00000,0.08573,75.95996,75.96020,80.14034,80.14058
2.80000,0.00000,-0.06967,-3.14159,0.00000,0.00008,-0.00000,0.00531,-0.00000,0.08574,75.96181,75.96205,80.14215,80.14239
2.80800,0.00000,-0.06967,-3.14159,0.00000,0.00008,-0.00000,0.00530,-0.00000,0.08574,75.96365,75.96389,80.14396,80.14420
2.81600,0.00000,-0.06967,-3.14159,0.00000,0.00008,-0.00000,0.00530,-0.00000,0.08574,75.96550,75.96574,80.14576,80.14600
2.82400,0.00000,-0.06967,-3.14159,0.00000,0.00008,-0.00000,0.00530,-0.00000,0.08574,75.96734,75.96758,80.14757,80.14781
2.83200,0.00000,-0.06967,-3.14159,0.00000,0.00008,-0.00000,0.00530,-0.00000,0.08574,75.96918,75.96943,80.14937,80.14962
2.84000,0.00000,-0.06967,-3.14159,0.00000,0.00008,-0.00000,0.00530,-0.00000,0.08574,75.97103,75.97127,80.15118,80.15142
2.84800,0.00000,-0.06967,-3.14159,0.00000,0.00008,-0.00000,0.00530,-0.00000,0.08574,75.97287,75.97312,80.15299,80.15323
2.85600,0.00000,-0.06967,-3.14159,0.00000,0.00008,-0.00000,0.00530,-0.00000,0.08574,75.97472,75.97496,80.15479,80.15504
2.86400,0.00000,-0.06967,-3.14159,0.00000,0.00008,-0.00000,0.00530,-0.00000,0.08574,75.97656,75.97681,80.15660,80.15684
2.87200,0.00000,-0.06967,-3.14159,0.00000,0.00008,-0.00000,0.00530,-0.00000,0.08574,75.97841,75.97865,80.15840,80.15865
2.88000,0.00000,-0.06967,-3.14159,0.00000,0.00008,-0.00000,0.00530,-0.00000,0.08574,75.98025,75.98050,80.16021,80.16046
2.88800,0.00000,-0.06967,-3.14159,0.00000,0.00008,-0.00000,0.00530,-0.00000,0.08574,75.98209,75.98234,80.16201,80.16226
2.89600,0.00000,-0.06967,-3.14159,0.00000,0.00008,-0.00000,0.00530,-0.00000,0.08574,75.98394,75.98419,80.16382,80.16407
2.90400,0.00000,-0.06967,-3.14159,0.00000,0.00008,-0.00000,0.00530,-0.00000,0.08574,75.98578,75.98603,80.16562,80.16587
2.91200,0.00000,-0.06967,-3.14159,0.00000,0.00008,-0.00000,0.00530,-0.00000,0.08574,75.98763,75.98788,80.16743,80.16768
2.92000,0.00000,-0.06967,-3.14159,0.00000,0.00008,-0.00000,0.00530,-0.00000,0.08574,75.98947,75.98972,80.16923,80.16948
2.92800,0.00000,-0.06966,-3.14159,0.00000,0.00008,-0.00000,0.00530,-0.00000,0.08574,75.99132,75.99157,80.17104,80.17129
2.93600,0.00000,-0.06966,-3.14159,0.00000,0.00008,-0.00000,0.00530,-0.00000,0.08574,75.99316,75.99341,80.17284,80.17310
2.94400,0.00000,-0.06966,-3.14159,0.00000,0.00008,-0.00000,0.00530,-0.00000,0.08574,75.99501,75.99526,80.17465,80.17490
2.95200,0.00000,-0.06966,-3.14159,0.00000,0.00008,-0.00000,0.00530,-0.00000,0.08574,75.99685,75.99711,80.17645,80.17671
2.96000,0.00000,-0.06966,-3.14159,0.00000,0.00008,-0.00000,0.00530,-0.00000,0.08574,75.99870,75.99895,80.17826,80.17851
2.96800,0.00000,-0.06966,-3.14159,0.00000,0.00008,-0.00000,0.00530,-0.00000,0.08574,76.00054,76.00080,80.18006,80.18032
2.97600,0.00000,-0.06966,-3.14159,0.00000,0.00008,-0.00000,0.00530,-0.00000,0.08574,76.00239,76.00264,80.18187,80.18212
2.98400,0.00000,-0.06966,-3.14159,0.00000,0.00008,-0.00000,0.00530,-0.00000,0.08574,76.00424,76.00449,80.18367,80.18393
2.99200,0.00000,-0.06966,-3.14159,0.00000,0.00008,-0.00000,0.00530,-0.00000,0.08574,76.00608,76.00634,80.18548,80.18573
3.00000,0.00000,-0.06966,-3.14159,0.00000,0.00008,-0.00000,0.00530,-0.00000,0.08574,76.00793,76.00818,80.18728,80.18754
3.00800,0.00000,-0.06966,-3.14159,0.00000,0.00008,-0.00000,0.00530,-0.00000,0.08574,76.00977,76.01003,80.18908,80.18934
3.01600,0.00000,-0.06966,-3.14159,0.00000,0.00009,-0.00000,0.00530,-0.00000,0.08574,76.01162,76.01188,80.19089,80.19114
3.02400,0.00000,-0.06966,-3.14159,0.00000,0.00009,-0.00000,0.00530,-0.00000,0.08574,76.01346,76.01372,80.19269,80.19295
3.03200,0.00000,-0.06966,-3.14159,0.00000,0.00009,-0.00000,0.00530,-0.00000,0.08574,76.01531,76.01557,80.19450,80.19475
3.04000,0.00000,-0.06966,-3.14159,0.00000,0.00009,-0.00000,0.00530,-0.00000,0.08574,76.01716,76.01741,80.19630,80.19656
3.04800,0.00000,-0.06965,-3.14159,0.00000,0.00009,-0.00000,0.00530,-0.00000,0.08574,76.01900,76.01926,80.19810,80.19836
3.05600,0.00000,-0.06965,-3.14159,0.00000,0.00009,-0.00000,0.00530,-0.00000,0.08574,76.02085,76.02111,80.19991,80.20017
3.06400,0.00000,-0.06965,-3.14159,0.00000,0.00009,-0.00000,0.00530,-0.00000,0.08574,76.02269,76.02295,80.20171,80.20197
3.07200,0.00000,-0.06965,-3.14159,0.00000,0.00009,-0.00000,0.00530,-0.00000,0.08574,76.02454,76.02480,80.20351,80.20377
3.08000,0.00000,-0.06965,-3.14159,0.00000,0.00009,-0.00000,0.00530,-0.00000,0.08574,76.02639,76.02665,80.20532,80.20558
3.08800,0.00000,-0.06965,-3.14159,0.00000,0.00009,-0.00000,0.00530,-0.00000,0.08574,76.02823,76.02850,80.20712,80.20738
3.09600,0.00000,-0.06965,-3.14159,0.00000,0.00009,-0.00000,0.00530,-0.00000,0.08574,76.03008,76.03034,80.20892,80.20918
3.10400,0.00000,-0.06965,-3.14159,0.00000,0.00009,-0.00000,0.00530,-0.00000,0.08574,76.03193,76.03219,80.21072,80.21099
3.11200,0.00000,-0.06965,-3.14159,0.00000,0.00009,-0.00000,0.00530,-0.00000,0.08575,76.03377,76.03404,80.21253,80.21279
3.12000,0.00000,-0.06965,-3.14159,0.00000,0.00009,-0.00000,0.00530,-0.00000,0.08575,76.03562,76.03588,80.21433,80.21459
3.12800,0.00000,-0.06965,-3.14159,0.00000,0.00009,-0.00000,0.00530,-0.00000,0.08575,76.03747,76.03773,80.21613,80.21640
3.13600,0.00000,-0.06965,-3.14159,0.00000,0.00009,-0.00000,0.00530,-0.00000,0.08575,76.03931,76.03958,80.21794,80.21820
3.14400,0.00000,-0.06965,-3.14159,0.00000,0.00009,-0.00000,0.00530,-0.00000,0.08575,76.04116,76.04143,80.21974,80.22000
3.15200,0.00000,-0.06965,-3.14159,0.00000,0.00009,-0.00000,0.00530,-0.00000,0.08575,76.04301,76.04327,80.22154,80.22181
3.16000,0.00000,-0.06964,-3.14159,0.00000,0.00009,-0.00000,0.00530,-0.00000,0.08575,76.04486,76.04512,80.22334,80.22361
3.16800,0.00000,-0.06964,-3.14159,0.00000,0.00009,-0.00000,0.00530,-0.00000,0.08575,76.04670,76.04697,80.22514,80.22541
3.17600,0.00000,-0.06964,-3.14159,0.00000,0.00009,-0.00000,0.00530,-0.00000,0.08575,76.04855,76.04882,80.22695,80.22721
3.18400,0.00000,-0.06964,-3.14159,0.00000,0.00009,-0.00000,0.00530,-0.00000,0.08575,76.05040,76.05067,80.22875,80.22902
3.19200,0.00000,-0.06964,-3.14159,0.00000,0.00009,-0.00000,0.00530,-0.00000,0.08575,76.05224,76.05251,80.23055,80.23082
3.20000,0.00000,-0.06964,-3.14159,0.00000,0.00009,-0.00000,0.00530,-0.00000,0.08575,76.05409,76.05436,80.23235,80.23262
3.20800,0.00000,-0.06964,-3.14159,0.00000,0.00009,-0.00000,0.00530,-0.00000,0.08575,76.05594,76.05621,80.23415,80.23442
3.21600,0.00000,-0.06964,-3.14159,0.00000,0.00009,-0.00000,0.00530,-0.00000,0.08575,76.05779,76.05806,80.23595,80.23623
3.22400,0.00000,-0.06964,-3.14159,0.00000,0.00009,-0.00000,0.00530,-0.00000,0.08575,76.05963,76.05991,80.23776,80.23803
3.23200,0.00000,-0.06964,-3.14159,0.00000,0.00009,-0.00000,0.00530,-0.00000,0.08575,76.06148,76.06175,80.23956,80.23983
3.24000,0.00000,-0.06964,-3.14159,0.00000,0.00010,-0.00000,0.00530,-0.00000,0.08575,76.06333,76.06360,80.24136,80.24163
3.24800,0.00000,-0.06964,-3.14159,0.00000,0.00010,-0.00000,0.00530,-0.00000,0.08575,76.06518,76.06546,80.24316,80.24343
3.25600,0.00000,-0.06964,-3.14159,0.00000,0.00012,-0.00000,0.00531,-0.00000,0.08575,76.06706,76.06734,80.24493,80.24521
3.26400,0.00000,-0.06963,-3.14159,0.00000,0.00014,-0.00000,0.00532,-0.00000,0.08575,76.06895,76.06922,80.24671,80.24698
3.27200,0.00000,-0.06963,-3.14159,0.00000,0.00016,-0.00000,0.00535,-0.00000,0.08575,76.07083,76.07110,80.24848,80.24875
3.28000,0.00000,-0.06963,-3.14159,0.00000,0.00017,-0.00000,0.00540,-0.00000,0.08575,76.07271,76.07299,80.25025,80.25053
3.28800,0.00000,-0.06963,-3.14159,0.00000,0.00018,-0.00000,0.00547,-0.00000,0.08575,76.07459,76.07487,80.25202,80.25230
3.29600,0.00000,-0.06963,-3.14159,0.00000,0.00019,-0.00000,0.00557,-0.00000,0.08575,76.07647,76.07675,80.25380,80.25407
3.30400,0.00000,-0.06963,-3.14159,0.00000,0.00020,-0.00000,0.00570,-0.00000,0.08575,76.07835,76.07863,80.25557,80.25584
3.31200,0.00000,-0.06963,-3.14159,0.00000,0.00020,-0.00000,0.00587,-0.00000,0.08575,76.08023,76.08051,80.25734,80.25762
3.32000,0.00001,-0.06963,-3.14159,0.00118,-0.00052,-0.00007,0.00607,0.00000,0.08575,76.07888,76.08248,80.25768,80.26128
3.32800,0.00005,-0.06963,3.14159,0.00496,-0.00040,-0.00083,0.00632,0.00000,0.08576,76.07201,76.08720,80.25076,80.26595
3.33600,0.00014,-0.06963,3.14157,0.01127,0.00072,-0.00227,0.00661,0.00001,0.08577,76.05900,76.09599,80.23516,80.27215
3.34400,0.00031,-0.06960,3.14154,0.02011,0.00284,-0.00437,0.00694,0.00002,0.08580,76.03900,76.11011,80.20956,80.28067
3.35200,0.00057,-0.06956,3.14148,0.03150,0.00593,-0.00710,0.00731,0.00003,0.08584,76.01116,76.13079,80.17266,80.29229
3.36000,0.00094,-0.06948,3.14140,0.04544,0.01000,-0.01041,0.00772,0.00005,0.08590,75.97463,76.15928,80.12315,80.30781
3.36800,0.00144,-0.06935,3.14128,0.06195,0.01503,-0.01428,0.00817,0.00008,0.08598,75.92852,76.19681,80.05972,80.32801
3.37600,0.00211,-0.06919,3.14113,0.08103,0.02101,-0.01864,0.00866,0.00012,0.08609,75.87194,76.24464,79.98104,80.35373
3.38400,0.00294,-0.06896,3.14094,0.10242,0.02768,-0.02304,0.00920,0.00017,0.08623,75.80403,76.30317,79.88639,80.38553
3.39200,0.00395,-0.06868,3.14072,0.12381,0.03436,-0.02744,0.00977,0.00022,0.08640,75.72600,76.36902,79.77839,80.42141
3.40000,0.00514,-0.06835,3.14047,0.14518,0.04103,-0.03183,0.01039,0.00029,0.08661,75.63784,76.44216,79.65701,80.46133
3.40800,0.00650,-0.06797,3.14018,0.16655,0.04770,-0.03622,0.01104,0.00037,0.08686,75.53952,76.52254,79.52222,80.50524
3.41600,0.00803,-0.06753,3.13986,0.18792,0.05437,-0.04061,0.01174,0.00046,0.08716,75.43101,76.61012,79.37399,80.55310
3.42400,0.00974,-0.06703,3.13950,0.20928,0.06103,-0.04500,0.01247,0.00057,0.08751,75.31227,76.70487,79.21227,80.60488
3.43200,0.01162,-0.06649,3.13910,0.23064,0.06769,-0.04938,0.01325,0.00069,0.08791,75.18328,76.80676,79.03705,80.66053
3.44000,0.01368,-0.06588,3.13868,0.25200,0.07433,-0.05377,0.01407,0.00083,0.08838,75.04401,76.91574,78.84828,80.72001
3.44800,0.01591,-0.06522,3.13822,0.27336,0.08097,-0.05815,0.01492,0.00098,0.08891,74.89442,77.03179,78.64593,80.78329
3.45600,0.01831,-0.06451,3.13773,0.29472,0.08759,-0.06254,0.01581,0.00116,0.08950,74.73450,77.15487,78.42997,80.85034
3.46400,0.02089,-0.06374,3.13720,0.31609,0.09420,-0.06693,0.01675,0.00135,0.09017,74.56422,77.28495,78.20037,80.92110
3.47200,0.02359,-0.06291,3.13664,0.33229,0.10218,-0.07157,0.01772,0.00157,0.09091,74.39324,77.41723,77.96337,80.98736
3.48000,0.02629,-0.06197,3.13605,0.33019,0.11503,-0.07705,0.01872,0.00180,0.09173,74.24866,77.53780,77.73665,81.02580
3.48800,0.02883,-0.06088,3.13540,0.31100,0.13244,-0.08334,0.01976,0.00205,0.09262,74.13671,77.64159,77.52488,81.02976
3.49600,0.03109,-0.05962,3.13471,0.27625,0.15401,-0.09036,0.02083,0.00231,0.09359,74.06248,77.72425,77.33190,80.99367
3.50400,0.03297,-0.05816,3.13397,0.22767,0.17930,-0.09801,0.02193,0.00258,0.09463,74.03001,77.78214,77.16082,80.91295
3.51200,0.03436,-0.05646,3.13317,0.16717,0.20784,-0.10620,0.02306,0.00286,0.09575,74.04219,77.81236,77.01396,80.78413
3.52000,0.03518,-0.05450,3.13231,0.09675,0.23908,-0.11480,0.02421,0.00315,0.09696,74.10085,77.81276,76.89287,80.60479
3.52800,0.03538,-0.05228,3.13140,0.01849,0.27250,-0.12370,0.02538,0.00345,0.09824,74.20672,77.78191,76.79837,80.37356
3.53600,0.03491,-0.04977,3.13041,-0.06548,0.30753,-0.13276,0.02658,0.00374,0.09961,74.35954,77.71911,76.73053,80.09010
3.54400,0.03372,-0.04697,3.12937,-0.15310,0.34363,-0.14187,0.02779,0.00404,0.10107,74.55809,77.62433,76.68877,79.75501
3.55200,0.03183,-0.04387,3.12825,-0.24231,0.38025,-0.15088,0.02902,0.00434,0.10262,74.80025,77.49820,76.67186,79.36981
3.56000,0.02921,-0.04048,3.12707,-0.33127,0.41690,-0.15970,0.03027,0.00464,0.10427,75.08331,77.34183,76.67813,78.93665
3.56800,0.02588,-0.03679,3.12582,-0.41999,0.45359,-0.16828,0.03153,0.00494,0.10602,75.40717,77.15524,76.70754,78.45561
3.57600,0.02184,-0.03282,3.12449,-0.50847,0.49030,-0.17660,0.03280,0.00524,0.10787,75.77174,76.93843,76.76007,77.92676
3.58400,0.01712,-0.02856,3.12309,-0.59218,0.52561,-0.18406,0.03407,0.00553,0.10984,76.16875,76.69594,76.83107,77.35826
3.59200,0.01187,-0.02407,3.12164,-0.65645,0.55494,-0.18880,0.03535,0.00582,0.11191,76.56946,76.44387,76.90400,76.77840
3.60000,0.00629,-0.01940,3.12015,-0.69790,0.57919,-0.19070,0.03664,0.00610,0.11410,76.96150,76.19481,76.96714,76.20046
3.60800,0.00070,-0.01454,3.11864,-0.69840,0.60315,-0.18902,0.03792,0.00639,0.11641,77.31760,75.99066,76.98389,75.65694
3.61600,-0.00459,-0.00951,3.11715,-0.65994,0.62627,-0.18399,0.03921,0.00668,0.11883,77.62310,75.84398,76.94104,75.16191
3.62400,-0.00938,-0.00433,3.11569,-0.59624,0.64455,-0.17720,0.04048,0.00699,0.12137,77.87576,75.74540,76.84664,74.71629
3.63200,-0.01349,0.00093,3.11427,-0.51166,0.65682,-0.16913,0.04176,0.00731,0.12403,78.06856,75.69601,76.69883,74.32628
3.64000,-0.01680,0.00624,3.11290,-0.41061,0.66189,-0.16023,0.04302,0.00764,0.12681,78.19600,75.69475,76.49785,73.99661
3.64800,-0.01920,0.01151,3.11159,-0.29740,0.65861,-0.15095,0.04428,0.00799,0.12971,78.25398,75.73873,76.24588,73.73063
3.65600,-0.02063,0.01669,3.11035,-0.17565,0.64601,-0.14164,0.04552,0.00836,0.13274,78.23915,75.82435,75.94585,73.53106
3.66400,-0.02104,0.02168,3.10918,-0.04723,0.62367,-0.13240,0.04675,0.00874,0.13589,78.14762,75.94943,75.59939,73.40120
3.67200,-0.02038,0.02642,3.10809,0.08559,0.59129,-0.12335,0.04797,0.00913,0.13918,77.97699,76.11066,75.20942,73.34309
3.68000,-0.01878,0.03085,3.10707,0.20247,0.55349,-0.11540,0.04917,0.00954,0.14260,77.76000,76.28741,74.80202,73.32943
3.68800,-0.01639,0.03494,3.10612,0.30059,0.51069,-0.10861,0.05036,0.00996,0.14616,77.50648,76.46881,74.38856,73.35089
3.69600,-0.01337,0.03866,3.10524,0.37876,0.46317,-0.10295,0.05152,0.01038,0.14984,77.22487,76.64498,73.97920,73.39931
3.70400,-0.00989,0.04195,3.10441,0.43733,0.41104,-0.09831,0.05267,0.01081,0.15365,76.92171,76.80742,73.58247,73.46818
3.71200,-0.00609,0.04480,3.10363,0.47703,0.35450,-0.09458,0.05379,0.01124,0.15759,76.60304,76.94850,73.20614,73.55160
3.72000,-0.00211,0.04716,3.10288,0.49896,0.29386,-0.09165,0.05489,0.01167,0.16166,76.27432,77.06160,72.85705,73.64433
3.72800,0.00191,0.04901,3.10216,0.50309,0.22995,-0.08957,0.05596,0.01209,0.16585,75.94298,77.13975,72.54255,73.73932
3.73600,0.00573,0.05035,3.10144,0.47989,0.16673,-0.08965,0.05701,0.01251,0.17017,75.63411,77.16697,72.27947,73.81234
3.74400,0.00917,0.05120,3.10071,0.43271,0.10458,-0.09164,0.05804,0.01292,0.17460,75.35497,77.13784,72.07383,73.85670
3.75200,0.01207,0.05156,3.09994,0.36540,0.04384,-0.09529,0.05903,0.01332,0.17915,75.11085,77.04914,71.92954,73.86783
3.76000,0.01430,0.05145,3.09913,0.28215,-0.01516,-0.10031,0.06000,0.01370,0.18381,74.90517,76.89976,71.84853,73.84311
3.76800,0.01576,0.05088,3.09827,0.18723,-0.07212,-0.10644,0.06093,0.01408,0.18858,74.73953,76.69047,71.83086,73.78180
3.77600,0.01640,0.04988,3.09734,0.08489,-0.12679,-0.11339,0.06184,0.01443,0.19346,74.61393,76.42380,71.87490,73.68477
3.78400,0.01617,0.04845,3.09634,-0.02203,-0.17924,-0.12099,0.06273,0.01477,0.19843,74.52802,76.10142,71.97944,73.55285
3.79200,0.01506,0.04662,3.09527,-0.13215,-0.22991,-0.12911,0.06358,0.01509,0.20349,74.48170,75.72348,72.14445,73.38623
3.80000,0.01314,0.04440,3.09414,-0.23286,-0.27788,-0.13650,0.06441,0.01540,0.20864,74.45967,75.30756,72.35154,73.19943
3.80800,0.01060,0.04182,3.09297,-0.30851,-0.32233,-0.14171,0.06522,0.01570,0.21387,74.43698,74.88035,72.57251,73.01588
3.81600,0.00767,0.03891,3.09178,-0.35885,-0.36310,-0.14467,0.06600,0.01599,0.21918,74.40418,74.45339,72.79587,72.84508
3.82400,0.00453,0.03570,3.09059,-0.38489,-0.39993,-0.14545,0.06677,0.01627,0.22457,74.35371,74.03675,73.01166,72.69470
3.83200,0.00136,0.03222,3.08942,-0.38865,-0.43250,-0.14420,0.06751,0.01656,0.23004,74.28000,73.63892,73.21163,72.57054
3.84000,-0.00167,0.02852,3.08828,-0.37286,-0.46043,-0.14114,0.06823,0.01685,0.23557,74.17956,73.26665,73.38930,72.47639
3.84800,-0.00444,0.02463,3.08719,-0.34082,-0.48337,-0.13654,0.06894,0.01714,0.24117,74.05088,72.92499,73.54000,72.41411
3.85600,-0.00685,0.02059,3.08617,-0.29610,-0.50095,-0.13069,0.06964,0.01744,0.24683,73.89431,72.61733,73.66073,72.38375
3.86400,-0.00882,0.01646,3.08520,-0.24234,-0.51286,-0.12392,0.07032,0.01774,0.25254,73.71177,72.34556,73.75001,72.38381
3.87200,-0.01030,0.01228,3.08430,-0.18308,-0.51885,-0.11655,0.07099,0.01805,0.25831,73.50650,72.11024,73.80769,72.41143
3.88000,-0.01129,0.00809,3.08347,-0.12159,-0.51875,-0.10888,0.07165,0.01836,0.26413,73.28275,71.91082,73.83467,72.46274
3.88800,-0.01178,0.00396,3.08271,-0.06074,-0.51246,-0.10122,0.07230,0.01868,0.26999,73.04544,71.74589,73.83267,72.53313
3.89600,-0.01181,-0.00007,3.08200,-0.00293,-0.49998,-0.09380,0.07295,0.01900,0.27588,72.79984,71.61342,73.80397,72.61755
3.90400,-0.01140,-0.00395,3.08135,0.05020,-0.48148,-0.08685,0.07359,0.01933,0.28181,72.55086,71.51122,73.75084,72.71120
3.91200,-0.01061,-0.00764,3.08074,0.09741,-0.45717,-0.08054,0.07422,0.01965,0.28776,72.30333,71.43683,73.67577,72.80927
3.92000,-0.00950,-0.01108,3.08017,0.13775,-0.42728,-0.07502,0.07484,0.01998,0.29374,72.06214,71.38765,73.58140,72.90691
3.92800,-0.00812,-0.01424,3.07963,0.17054,-0.39210,-0.07041,0.07546,0.02031,0.29973,71.83202,71.36098,73.47045,72.99941
3.93600,-0.00654,-0.01707,3.07911,0.19540,-0.35189,-0.06677,0.07608,0.02063,0.30573,71.61748,71.35417,73.34558,73.08227
3.94400,-0.00482,-0.01955,3.07861,0.21274,-0.30712,-0.06413,0.07670,0.02095,0.31174,71.42174,71.36517,73.20870,73.15213
3.95200,-0.00301,-0.02163,3.07812,0.22403,-0.25846,-0.06243,0.07730,0.02128,0.31776,71.24582,71.39305,73.06032,73.20755
3.96000,-0.00122,-0.02331,3.07762,0.22087,-0.20891,-0.06205,0.07791,0.02159,0.32377,71.09960,71.41930,72.91592,73.23562
3.96800,0.00043,-0.02459,3.07712,0.20395,-0.15958,-0.06289,0.07852,0.02191,0.32978,70.98633,71.43747,72.78101,73.23214
3.97600,0.00187,-0.02548,3.07660,0.17665,-0.11098,-0.06467,0.07912,0.02221,0.33579,70.90591,71.44586,72.65691,73.19686
3.98400,0.00303,-0.02599,3.07605,0.14246,-0.06362,-0.06709,0.07972,0.02250,0.34180,70.85667,71.44424,72.54358,73.13115
3.99200,0.00388,-0.02614,3.07549,0.10472,-0.01796,-0.06985,0.08032,0.02279,0.34781,70.83568,71.43348,72.43984,73.03764
4.00000,0.00443,-0.02593,3.07491,0.06645,0.02556,-0.07269,0.08093,0.02306,0.35381,70.83910,71.41532,72.34372,72.91994
4.00800,0.00469,-0.02539,3.07430,0.03018,0.06658,-0.07537,0.08153,0.02333,0.35981,70.86248,71.39199,72.25276,72.78226
4.01600,0.00469,-0.02454,3.07368,-0.00210,0.10477,-0.07771,0.08214,0.02359,0.36581,70.90114,71.36596,72.16430,72.62912
4.02400,0.00447,-0.02342,3.07305,-0.02898,0.13984,-0.07958,0.08275,0.02385,0.37181,70.95040,71.33967,72.07574,72.46501
4.03200,0.00409,-0.02203,3.07240,-0.04963,0.17158,-0.08091,0.08336,0.02410,0.37780,71.00583,71.31533,71.98472,72.29422
4.04000,0.00359,-0.02042,3.07175,-0.06377,0.19979,-0.08166,0.08397,0.02435,0.38380,71.06344,71.29475,71.88931,72.12062
4.04800,0.00303,-0.01862,3.07110,-0.07156,0.22437,-0.08185,0.08459,0.02460,0.38979,71.11981,71.27924,71.78811,71.94754
4.05600,0.00245,-0.01664,3.07045,-0.07355,0.24522,-0.08154,0.08521,0.02485,0.39578,71.17214,71.26957,71.68028,71.77770
4.06400,0.00189,-0.01453,3.06980,-0.07057,0.26231,-0.08080,0.08583,0.02509,0.40178,71.21832,71.26595,71.56556,71.61319
4.07200,0.00138,-0.01231,3.06916,-0.06362,0.27567,-0.07972,0.08646,0.02534,0.40777,71.25684,71.26806,71.44426,71.45548
4.08000,0.00096,-0.01002,3.06854,-0.05378,0.28533,-0.07841,0.08708,0.02559,0.41377,71.28682,71.27515,71.31715,71.30548
4.08800,0.00063,-0.00767,3.06792,-0.04215,0.29139,-0.07695,0.08771,0.02585,0.41977,71.30787,71.28608,71.18540,71.16361
4.09600,0.00039,-0.00531,3.06731,-0.02977,0.29398,-0.07544,0.08834,0.02610,0.42577,71.32002,71.29946,71.05045,71.02989
4.10400,0.00025,-0.00295,3.06672,-0.01752,0.29325,-0.07396,0.08897,0.02636,0.43178,71.32363,71.31371,70.91397,70.90405
4.11200,0.00020,-0.00062,3.06614,-0.00616,0.28939,-0.07257,0.08960,0.02662,0.43779,71.31927,71.32723,70.77765,70.78561
4.12000,0.00023,0.00165,3.06556,0.00375,0.28259,-0.07132,0.09023,0.02687,0.44380,71.30765,71.33841,70.64322,70.67397
4.12800,0.00033,0.00385,3.06500,0.01182,0.27310,-0.07023,0.09085,0.02713,0.44982,71.28954,71.34578,70.51226,70.56850
4.13600,0.00047,0.00595,3.06444,0.01784,0.26115,-0.06933,0.09148,0.02739,0.45585,71.26566,71.34804,70.38622,70.46860
4.14400,0.00064,0.00794,3.06389,0.02179,0.24700,-0.06860,0.09210,0.02765,0.46187,71.23669,71.34411,70.26633,70.37375
4.15200,0.00082,0.00980,3.06334,0.02376,0.23091,-0.06805,0.09271,0.02791,0.46791,71.20320,71.33318,70.15354,70.28352
4.16000,0.00101,0.01151,3.06280,0.02394,0.21316,-0.06764,0.09332,0.02817,0.47394,71.16566,71.31469,70.04859,70.19762
4.16800,0.00119,0.01307,3.06226,0.02263,0.19402,-0.06736,0.09393,0.02843,0.47998,71.12440,71.28835,69.95191,70.11587
4.17600,0.00134,0.01447,3.06172,0.02016,0.17377,-0.06718,0.09453,0.02869,0.48602,71.07963,71.25412,69.86373,70.03822
4.18400,0.00147,0.01570,3.06119,0.01688,0.15269,-0.06706,0.09512,0.02894,0.49207,71.03150,71.21218,69.78402,69.96471
4.19200,0.00157,0.01676,3.06065,0.01312,0.13103,-0.06698,0.09571,0.02920,0.49811,70.98004,71.16289,69.71259,69.89544
4.20000,0.00163,0.01763,3.06011,0.00920,0.10906,-0.06691,0.09628,0.02945,0.50416,70.92528,71.10678,69.64908,69.83057
4.20800,0.00166,0.01834,3.05957,0.00540,0.08703,-0.06683,0.09685,0.02970,0.51020,70.86719,71.04447,69.59299,69.77028
4.21600,0.00167,0.01886,3.05904,0.00194,0.06517,-0.06672,0.09741,0.02995,0.51625,70.80577,70.97669,69.54378,69.71470
4.22400,0.00165,0.01921,3.05850,-0.00102,0.04371,-0.06657,0.09796,0.03021,0.52229,70.74103,70.90420,69.50081,69.66397
4.23200,0.00161,0.01940,3.05797,-0.00338,0.02285,-0.06638,0.09850,0.03046,0.52833,70.67305,70.82775,69.46346,69.61815
4.24000,0.00156,0.01942,3.05744,-0.00509,0.00279,-0.06613,0.09903,0.03071,0.53436,70.60195,70.74810,69.43108,69.57723
4.24800,0.00150,0.01929,3.05691,-0.00615,-0.01630,-0.06583,0.09955,0.03096,0.54038,70.52793,70.66599,69.40306,69.54113
4.25600,0.00144,0.01902,3.05638,-0.00660,-0.03427,-0.06549,0.10006,0.03121,0.54640,70.45124,70.58209,69.37882,69.50967
4.26400,0.00138,0.01861,3.05586,-0.00651,-0.05099,-0.06510,0.10056,0.03146,0.55241,70.37223,70.49703,69.35780,69.48260
4.27200,0.00132,0.01807,3.05533,-0.00598,-0.06634,-0.06469,0.10105,0.03171,0.55840,70.29128,70.41137,69.33953,69.45962
4.28000,0.00127,0.01743,3.05482,-0.00512,-0.08022,-0.06425,0.10153,0.03196,0.56438,70.20885,70.32561,69.32355,69.44031
4.28800,0.00123,0.01669,3.05430,-0.00404,-0.09258,-0.06379,0.10200,0.03222,0.57035,70.12541,70.24020,69.30946,69.42426
4.29600,0.00120,0.01585,3.05379,-0.00285,-0.10334,-0.06333,0.10246,0.03247,0.57631,70.04148,70.15555,69.29690,69.41097
4.30400,0.00118,0.01495,3.05329,-0.00163,-0.11248,-0.06287,0.10292,0.03272,0.58224,69.95758,70.07198,69.28553,69.39994
4.31200,0.00117,0.01399,3.05278,-0.00048,-0.11998,-0.06242,0.10336,0.03297,0.58815,69.87423,69.98982,69.27506,69.39065
4.32000,0.00116,0.01297,3.05228,0.00054,-0.12585,-0.06198,0.10379,0.03323,0.59405,69.79194,69.90933,69.26521,69.38261
4.32800,0.00117,0.01193,3.05179,0.00139,-0.13010,-0.06156,0.10421,0.03348,0.59992,69.71117,69.83077,69.25572,69.37531
4.33600,0.00118,0.01086,3.05129,0.00204,-0.13277,-0.06117,0.10462,0.03373,0.60577,69.63239,69.75435,69.24633,69.36829
4.34400,0.00119,0.00978,3.05080,0.00247,-0.13392,-0.06079,0.10503,0.03399,0.61159,69.55597,69.68028,69.23681,69.36112
4.35200,0.00121,0.00871,3.05031,0.00269,-0.13360,-0.06043,0.10543,0.03424,0.61739,69.48227,69.60875,69.22692,69.35339
4.36000,0.00123,0.00765,3.04983,0.00273,-0.13189,-0.06009,0.10582,0.03449,0.62316,69.41158,69.53992,69.21645,69.34478
4.36800,0.00125,0.00661,3.04935,0.00259,-0.12889,-0.05977,0.10620,0.03475,0.62890,69.34414,69.47396,69.20517,69.33498
4.37600,0.00126,0.00561,3.04887,0.00233,-0.12468,-0.05947,0.10658,0.03500,0.63461,69.28013,69.41099,69.19288,69.32375
4.38400,0.00128,0.00465,3.04839,0.00197,-0.11937,-0.05917,0.10694,0.03525,0.64029,69.21968,69.35116,69.17940,69.31087
4.39200,0.00129,0.00374,3.04792,0.00154,-0.11308,-0.05889,0.10731,0.03550,0.64594,69.16287,69.29454,69.16454,69.29621
4.40000,0.00129,0.00289,3.04744,0.00109,-0.10591,-0.05861,0.10766,0.03576,0.65155,69.10974,69.24123,69.14815,69.27964
4.40800,0.00130,0.00210,3.04697,0.00065,-0.09798,-0.05833,0.10801,0.03601,0.65713,69.06028,69.19128,69.13009,69.26109
4.41600,0.00130,0.00138,3.04651,0.00023,-0.08942,-0.05805,0.10836,0.03626,0.66268,69.01444,69.14471,69.11027,69.24054
4.42400,0.00130,0.00074,3.04604,-0.00014,-0.08035,-0.05777,0.10870,0.03651,0.66819,68.97215,69.10153,69.08859,69.21796
4.43200,0.00129,0.00017,3.04558,-0.00044,-0.07089,-0.05748,0.10903,0.03676,0.67366,68.93331,69.06170,69.06500,69.19339
4.44000,0.00129,-0.00032,3.04512,-0.00068,-0.06116,-0.05720,0.10936,0.03701,0.67910,68.89779,69.02517,69.03949,69.16687
4.44800,0.00128,-0.00073,3.04466,-0.00083,-0.05126,-0.05691,0.10969,0.03726,0.68451,68.86543,68.99185,69.01205,69.13848
4.45600,0.00127,-0.00107,3.04420,-0.00092,-0.04132,-0.05661,0.11001,0.03751,0.68987,68.83609,68.96164,68.98274,69.10829
4.46400,0.00127,-0.00132,3.04375,-0.00094,-0.03144,-0.05631,0.11033,0.03776,0.69520,68.80957,68.93438,68.95160,69.07641
4.47200,0.00126,-0.00149,3.04330,-0.00090,-0.02172,-0.05601,0.11064,0.03801,0.70049,68.78570,68.90992,68.91874,69.04296
4.48000,0.00125,-0.00159,3.04285,-0.00082,-0.01225,-0.05570,0.11095,0.03825,0.70574,68.76428,68.88808,68.88426,69.00806
4.48800,0.00125,-0.00162,3.04240,-0.00070,-0.00312,-0.05539,0.11126,0.03850,0.71095,68.74512,68.86865,68.84832,68.97185
4.49600,0.00125,-0.00157,3.04196,-0.00056,0.00559,-0.05508,0.11156,0.03875,0.71613,68.72800,68.85143,68.81105,68.93448
4.50400,0.00124,-0.00146,3.04152,-0.00041,0.01381,-0.05477,0.11186,0.03900,0.72126,68.71272,68.83620,68.77263,68.89610
4.51200,0.00124,-0.00129,3.04108,-0.00026,0.02148,-0.05447,0.11216,0.03924,0.72636,68.69908,68.82271,68.73325,68.85687
4.52000,0.00124,-0.00106,3.04065,-0.00011,0.02855,-0.05416,0.11246,0.03949,0.73142,68.68687,68.81074,68.69308,68.81696
4.52800,0.00124,-0.00077,3.04021,0.00002,0.03497,-0.05386,0.11275,0.03973,0.73644,68.67588,68.80007,68.65233,68.77652
4.53600,0.00124,-0.00045,3.03978,0.00013,0.04071,-0.05355,0.11304,0.03998,0.74142,68.66590,68.79045,68.61120,68.73574
4.54400,0.00124,-0.00008,3.03936,0.00022,0.04574,-0.05325,0.11333,0.04022,0.74637,68.65675,68.78167,68.56987,68.69478
4.55200,0.00125,0.00033,3.03893,0.00029,0.05005,-0.05296,0.11361,0.04047,0.75128,68.64823,68.77351,68.52854,68.65382
4.56000,0.00125,0.00076,3.03851,0.00034,0.05363,-0.05266,0.11390,0.04071,0.75614,68.64014,68.76577,68.48739,68.61301
4.56800,0.00125,0.00121,3.03809,0.00036,0.05646,-0.05237,0.11418,0.04096,0.76097,68.63232,68.75825,68.44661,68.57254
4.57600,0.00125,0.00168,3.03767,0.00037,0.05857,-0.05208,0.11445,0.04120,0.76577,68.62460,68.75079,68.40637,68.53256
4.58400,0.00126,0.00217,3.03725,0.00037,0.05996,-0.05179,0.11472,0.04144,0.77052,68.61681,68.74321,68.36682,68.49322
4.59200,0.00126,0.00266,3.03684,0.00036,0.06066,-0.05151,0.11499,0.04168,0.77524,68.60882,68.73538,68.32812,68.45468
4.60000,0.00126,0.00315,3.03643,0.00034,0.06070,-0.05122,0.11526,0.04193,0.77992,68.60048,68.72716,68.29039,68.41706
4.60800,0.00126,0.00363,3.03602,0.00031,0.06009,-0.05094,0.11552,0.04217,0.78456,68.59169,68.71843,68.25377,68.38051
4.61600,0.00126,0.00410,3.03561,0.00029,0.05889,-0.05066,0.11579,0.04241,0.78917,68.58234,68.70910,68.21836,68.34513
4.62400,0.00126,0.00456,3.03521,0.00027,0.05713,-0.05038,0.11604,0.04265,0.79374,68.57233,68.69909,68.18426,68.31102
4.63200,0.00126,0.00501,3.03480,0.00025,0.05487,-0.05010,0.11630,0.04289,0.79827,68.56160,68.68833,68.15156,68.27828
4.64000,0.00126,0.00543,3.03440,0.00023,0.05214,-0.04982,0.11655,0.04313,0.80277,68.55010,68.67677,68.12031,68.24699
4.64800,0.00126,0.00582,3.03401,0.00022,0.04900,-0.04954,0.11679,0.04337,0.80722,68.53777,68.66438,68.09059,68.21720
4.65600,0.00126,0.00619,3.03361,0.00022,0.04550,-0.04926,0.11703,0.04361,0.81164,68.52460,68.65114,68.06242,68.18897
4.66400,0.00126,0.00652,3.03322,0.00022,0.04170,-0.04898,0.11727,0.04385,0.81603,68.51057,68.63705,68.03584,68.16232
4.67200,0.00126,0.00683,3.03282,0.00023,0.03764,-0.04870,0.11751,0.04409,0.82037,68.49569,68.62211,68.01086,68.13729
4.68000,0.00126,0.00709,3.03244,0.00024,0.03340,-0.04843,0.11773,0.04433,0.82468,68.47997,68.60634,67.98750,68.11386
4.68800,0.00126,0.00733,3.03205,0.00025,0.02900,-0.04815,0.11796,0.04456,0.82896,68.46346,68.58977,67.96574,68.09205
4.69600,0.00126,0.00753,3.03166,0.00027,0.02452,-0.04788,0.11818,0.04480,0.83319,68.44618,68.57246,67.94556,68.07183
4.70400,0.00126,0.00769,3.03128,0.00028,0.02000,-0.04761,0.11840,0.04504,0.83739,68.42820,68.55444,67.92693,68.05317
4.71200,0.00126,0.00781,3.03090,0.00030,0.01549,-0.04734,0.11861,0.04528,0.84155,68.40957,68.53578,67.90981,68.03603
4.72000,0.00126,0.00790,3.03052,0.00031,0.01104,-0.04707,0.11882,0.04552,0.84567,68.39037,68.51656,67.89417,68.02035
4.72800,0.00126,0.00796,3.03014,0.00032,0.00669,-0.04680,0.11902,0.04575,0.84976,68.37068,68.49684,67.87992,68.00608
4.73600,0.00125,0.00798,3.02977,0.00032,0.00247,-0.04653,0.11922,0.04599,0.85380,68.35057,68.47670,67.86703,67.99316
4.74400,0.00125,0.00796,3.02940,0.00033,-0.00157,-0.04627,0.11941,0.04623,0.85781,68.33014,68.45624,67.85540,67.98151
4.75200,0.00125,0.00792,3.02903,0.00033,-0.00540,-0.04601,0.11960,0.04647,0.86178,68.30947,68.43554,67.84497,67.97105
4.76000,0.00125,0.00785,3.02866,0.00032,-0.00899,-0.04575,0.11979,0.04670,0.86572,68.28867,68.41470,67.83566,67.96169
4.76800,0.00125,0.00775,3.02829,0.00031,-0.01231,-0.04549,0.11996,0.04694,0.86961,68.26782,68.39380,67.82738,67.95336
4.77600,0.00125,0.00763,3.02793,0.00031,-0.01535,-0.04524,0.12014,0.04718,0.87346,68.24701,68.37294,67.82004,67.94597
4.78400,0.00125,0.00748,3.02757,0.00029,-0.01809,-0.04499,0.12031,0.04742,0.87728,68.22635,68.35222,67.81355,67.93942
4.79200,0.00125,0.00732,3.02721,0.00028,-0.02051,-0.04473,0.12047,0.04765,0.88106,68.20591,68.33171,67.80782,67.93363
4.80000,0.00125,0.00714,3.02685,0.00027,-0.02260,-0.04448,0.12064,0.04789,0.88480,68.18579,68.31152,67.80277,67.92850
4.80800,0.00125,0.00694,3.02649,0.00025,-0.02436,-0.04424,0.12079,0.04813,0.88850,68.16607,68.29172,67.79831,67.92395
4.81600,0.00125,0.00673,3.02614,0.00023,-0.02579,-0.04399,0.12094,0.04836,0.89215,68.14683,68.27240,67.79434,67.91990
4.82400,0.00125,0.00652,3.02579,0.00022,-0.02688,-0.04375,0.12109,0.04860,0.89577,68.12815,68.25362,67.79078,67.91626
4.83200,0.00125,0.00630,3.02544,0.00021,-0.02764,-0.04350,0.12123,0.04883,0.89935,68.11008,68.23547,67.78756,67.91295
4.84000,0.00125,0.00607,3.02509,0.00019,-0.02809,-0.04326,0.12137,0.04907,0.90289,68.09270,68.21800,67.78460,67.90990
4.84800,0.00125,0.00584,3.02474,0.00018,-0.02822,-0.04302,0.12151,0.04931,0.90639,68.07606,68.20128,67.78182,67.90704
4.85600,0.00125,0.00562,3.02440,0.00017,-0.02806,-0.04279,0.12164,0.04954,0.90985,68.06020,68.18534,67.77916,67.90429
4.86400,0.00125,0.00540,3.02406,0.00016,-0.02762,-0.04255,0.12176,0.04978,0.91327,68.04518,68.17024,67.77655,67.90161
4.87200,0.00125,0.00518,3.02371,0.00015,-0.02691,-0.04232,0.12188,0.05001,0.91665,68.03102,68.15601,67.77395,67.89894
4.88000,0.00125,0.00497,3.02338,0.00015,-0.02596,-0.04208,0.12200,0.05025,0.91999,68.01776,68.14268,67.77130,67.89622
4.88800,0.00125,0.00477,3.02304,0.00014,-0.02480,-0.04185,0.12212,0.05048,0.92329,68.00541,68.13027,67.76856,67.89342
4.89600,0.00125,0.00459,3.02270,0.00014,-0.02343,-0.04162,0.12223,0.05072,0.92654,67.99399,68.11880,67.76570,67.89051
4.90400,0.00124,0.00441,3.02237,0.00014,-0.02189,-0.04139,0.12233,0.05095,0.92976,67.98351,68.10827,67.76268,67.88744
4.91200,0.00124,0.00425,3.02204,0.00013,-0.02020,-0.04116,0.12244,0.05119,0.93294,67.97396,68.09868,67.75947,67.88420
4.92000,0.00124,0.00410,3.02171,0.00013,-0.01839,-0.04094,0.12254,0.05142,0.93607,67.96535,68.09003,67.75608,67.88076
4.92800,0.00124,0.00397,3.02138,0.00013,-0.01647,-0.04071,0.12263,0.05165,0.93917,67.95765,68.08231,67.75247,67.87713
4.93600,0.00124,0.00385,3.02106,0.00013,-0.01448,-0.04049,0.12273,0.05189,0.94223,67.95085,68.07549,67.74865,67.87329
4.94400,0.00124,0.00375,3.02073,0.00013,-0.01243,-0.04027,0.12282,0.05212,0.94524,67.94493,68.06955,67.74461,67.86923
4.95200,0.00124,0.00367,3.02041,0.00013,-0.01036,-0.04004,0.12290,0.05236,0.94822,67.93986,68.06447,67.74037,67.86498
4.96000,0.00124,0.00360,3.02009,0.00013,-0.00828,-0.03982,0.12299,0.05259,0.95115,67.93561,68.06021,67.73592,67.86053
4.96800,0.00124,0.00355,3.01977,0.00014,-0.00621,-0.03960,0.12307,0.05282,0.95405,67.93213,68.05674,67.73129,67.85590
4.97600,0.00124,0.00352,3.01945,0.00014,-0.00418,-0.03939,0.12314,0.05306,0.95691,67.92940,68.05401,67.72650,67.85111
4.98400,0.00124,0.00350,3.01914,0.00014,-0.00221,-0.03917,0.12322,0.05329,0.95972,67.92737,68.05199,67.72157,67.84618
4.99200,0.00124,0.00350,3.01883,0.00014,-0.00031,-0.03895,0.12329,0.05352,0.96250,67.92600,68.05062,67.71652,67.84114
5.00000,0.00124,0.00351,3.01851,0.00015,0.00150,-0.03874,0.12336,0.05375,0.96524,67.92523,68.04986,67.71138,67.83601
5.00800,0.00124,0.00354,3.01820,0.00015,0.00321,-0.03853,0.12342,0.05398,0.96794,67.92502,68.04967,67.70618,67.83083
5.01600,0.00124,0.00358,3.01790,0.00015,0.00480,-0.03831,0.12348,0.05422,0.97060,67.92532,68.04999,67.70095,67.82562
5.02400,0.00124,0.00363,3.01759,0.00015,0.00627,-0.03810,0.12354,0.05445,0.97323,67.92608,68.05077,67.69574,67.82043
5.03200,0.00124,0.00369,3.01728,0.00016,0.00760,-0.03789,0.12360,0.05468,0.97581,67.92726,68.05197,67.69057,67.81528
5.04000,0.00124,0.00376,3.01698,0.00016,0.00879,-0.03768,0.12366,0.05491,0.97836,67.92881,68.05354,67.68547,67.81020
5.04800,0.00124,0.00384,3.01668,0.00016,0.00983,-0.03748,0.12371,0.05514,0.98087,67.93067,68.05543,67.68049,67.80525
5.05600,0.00124,0.00393,3.01638,0.00017,0.01071,-0.03727,0.12375,0.05537,0.98334,67.93281,68.05759,67.67566,67.80044
5.06400,0.00124,0.00402,3.01608,0.00017,0.01145,-0.03706,0.12380,0.05560,0.98578,67.93517,68.05998,67.67101,67.79582
5.07200,0.00124,0.00412,3.01579,0.00017,0.01203,-0.03686,0.12384,0.05583,0.98817,67.93773,68.06256,67.66658,67.79141
5.08000,0.00125,0.00422,3.01549,0.00018,0.01246,-0.03665,0.12388,0.05606,0.99054,67.94044,68.06529,67.66239,67.78725
5.08800,0.00125,0.00432,3.01520,0.00018,0.01273,-0.03645,0.12392,0.05629,0.99286,67.94326,68.06814,67.65849,67.78337
5.09600,0.00125,0.00443,3.01491,0.00018,0.01287,-0.03625,0.12396,0.05652,0.99515,67.94616,68.07106,67.65489,67.77979
5.10400,0.00125,0.00453,3.01462,0.00019,0.01286,-0.03604,0.12399,0.05675,0.99741,67.94911,68.07404,67.65162,67.77655
5.11200,0.00125,0.00463,3.01433,0.00019,0.01273,-0.03584,0.12402,0.05698,0.99962,67.95208,68.07704,67.64870,67.77366
5.12000,0.00125,0.00473,3.01404,0.00019,0.01246,-0.03564,0.12404,0.05721,1.00181,67.95505,68.08003,67.64616,67.77114
5.12800,0.00125,0.00483,3.01376,0.00019,0.01208,-0.03545,0.12407,0.05744,1.00395,67.95800,68.08300,67.64402,67.76902
5.13600,0.00125,0.00492,3.01347,0.00019,0.01160,-0.03525,0.12409,0.05767,1.00607,67.96091,68.08594,67.64228,67.76731
5.14400,0.00125,0.00501,3.01319,0.00020,0.01102,-0.03505,0.12411,0.05790,1.00815,67.96377,68.08882,67.64097,67.76601
5.15200,0.00125,0.00510,3.01291,0.00020,0.01035,-0.03486,0.12412,0.05813,1.01019,67.96657,68.09163,67.64008,67.76515
5.16000,0.00125,0.00517,3.01263,0.00020,0.00961,-0.03466,0.12413,0.05836,1.01220,67.96930,68.09438,67.63964,67.76472
5.16800,0.00125,0.00525,3.01236,0.00020,0.00880,-0.03447,0.12414,0.05858,1.01418,67.97195,68.09704,67.63964,67.76473
5.17600,0.00125,0.00531,3.01208,0.00020,0.00794,-0.03428,0.12415,0.05881,1.01612,67.97453,68.09963,67.64008,67.76518
5.18400,0.00125,0.00537,3.01181,0.00020,0.00704,-0.03408,0.12415,0.05904,1.01803,67.97703,68.10215,67.64096,67.76608
5.19200,0.00125,0.00542,3.01153,0.00020,0.00611,-0.03389,0.12415,0.05927,1.01990,67.97946,68.10459,67.64228,67.76741
5.20000,0.00125,0.00546,3.01126,0.00019,0.00516,-0.03370,0.12415,0.05950,1.02175,67.98183,68.10696,67.64403,67.76916
5.20800,0.00125,0.00549,3.01099,0.00019,0.00421,-0.03352,0.12415,0.05972,1.02356,67.98414,68.10928,67.64620,67.77134
5.21600,0.00125,0.00552,3.01072,0.00019,0.00325,-0.03333,0.12414,0.05995,1.02534,67.98641,68.11155,67.64879,67.77393
5.22400,0.00125,0.00554,3.01046,0.00019,0.00231,-0.03314,0.12413,0.06018,1.02708,67.98864,68.11379,67.65177,67.77691
5.23200,0.00125,0.00555,3.01019,0.00019,0.00139,-0.03296,0.12412,0.06041,1.02880,67.99086,68.11600,67.65513,67.78028
5.24000,0.00125,0.00555,3.00993,0.00019,0.00050,-0.03277,0.12410,0.06063,1.03048,67.99307,68.11821,67.65886,67.78400
5.24800,0.00125,0.00555,3.00967,0.00018,-0.00035,-0.03259,0.12408,0.06086,1.03213,67.99529,68.12043,67.66294,67.78808
5.25600,0.00125,0.00554,3.00941,0.00018,-0.00116,-0.03241,0.12406,0.06109,1.03375,67.99754,68.12268,67.66734,67.79248
5.26400,0.00125,0.00553,3.00915,0.00018,-0.00192,-0.03223,0.12403,0.06132,1.03534,67.99983,68.12497,67.67206,67.79720
5.27200,0.00125,0.00551,3.00889,0.00018,-0.00262,-0.03205,0.12400,0.06154,1.03690,68.00219,68.12732,67.67707,67.80220
5.28000,0.00125,0.00548,3.00863,0.00018,-0.00326,-0.03187,0.12397,0.06177,1.03842,68.00462,68.12975,67.68234,67.80747
5.28800,0.00125,0.00545,3.00838,0.00017,-0.00384,-0.03169,0.12394,0.06200,1.03992,68.00715,68.13228,67.68786,67.81298
5.29600,0.00125,0.00541,3.00812,0.00017,-0.00435,-0.03152,0.12390,0.06222,1.04139,68.00980,68.13492,67.69361,67.81873
5.30400,0.00125,0.00538,3.00787,0.00017,-0.00479,-0.03134,0.12386,0.06245,1.04282,68.01257,68.13769,67.69956,67.82467
5.31200,0.00125,0.00534,3.00762,0.00017,-0.00516,-0.03117,0.12382,0.06268,1.04423,68.01549,68.14060,67.70569,67.83080
5.32000,0.00125,0.00529,3.00737,0.00016,-0.00546,-0.03099,0.12378,0.06290,1.04560,68.01857,68.14368,67.71198,67.83709
5.32800,0.00125,0.00525,3.00712,0.00016,-0.00569,-0.03082,0.12373,0.06313,1.04695,68.02182,68.14692,67.71842,67.84352
5.33600,0.00125,0.00520,3.00688,0.00016,-0.00585,-0.03065,0.12368,0.06335,1.04827,68.02526,68.15036,67.72498,67.85008
5.34400,0.00125,0.00515,3.00663,0.00016,-0.00594,-0.03048,0.12362,0.06358,1.04956,68.02889,68.15399,67.73165,67.85674
5.35200,0.00125,0.00510,3.00639,0.00016,-0.00597,-0.03031,0.12357,0.06381,1.05082,68.03273,68.15783,67.73840,67.86349
5.36000,0.00125,0.00506,3.00615,0.00016,-0.00593,-0.03014,0.12351,0.06403,1.05205,68.03679,68.16188,67.74523,67.87032
5.36800,0.00125,0.00501,3.00590,0.00015,-0.00583,-0.02997,0.12345,0.06426,1.05325,68.04107,68.16616,67.75211,67.87720
5.37600,0.00125,0.00497,3.00566,0.00015,-0.00568,-0.02981,0.12339,0.06448,1.05443,68.04557,68.17067,67.75903,67.88413
5.38400,0.00125,0.00492,3.00543,0.00015,-0.00548,-0.02964,0.12332,0.06471,1.05557,68.05031,68.17540,67.76599,67.89108
5.39200,0.00125,0.00488,3.00519,0.00015,-0.00523,-0.02948,0.12325,0.06494,1.05669,68.05528,68.18038,67.77297,67.89806
5.40000,0.00125,0.00484,3.00495,0.00015,-0.00493,-0.02931,0.12318,0.06516,1.05778,68.06049,68.18559,67.77995,67.90505
5.40800,0.00125,0.00480,3.00472,0.00015,-0.00460,-0.02915,0.12311,0.06539,1.05885,68.06593,68.19103,67.78694,67.91204
5.41600,0.00125,0.00477,3.00448,0.00015,-0.00424,-0.02899,0.12303,0.06561,1.05989,68.07160,68.19671,67.79392,67.91903
5.42400,0.00125,0.00474,3.00425,0.00015,-0.00386,-0.02883,0.12295,0.06584,1.06090,68.07750,68.20262,67.80089,67.92600
5.43200,0.00125,0.00471,3.00402,0.00015,-0.00345,-0.02867,0.12287,0.06606,1.06188,68.08363,68.20876,67.80784,67.93297
5.44000,0.00125,0.00469,3.00379,0.00015,-0.00302,-0.02851,0.12279,0.06629,1.06284,68.08998,68.21511,67.81478,67.93991
5.44800,0.00125,0.00467,3.00356,0.00015,-0.00258,-0.02835,0.12270,0.06651,1.06377,68.09654,68.22168,67.82169,67.94684
5.45600,0.00125,0.00465,3.00334,0.00015,-0.00214,-0.02819,0.12261,0.06674,1.06468,68.10330,68.22846,67.82859,67.95375
5.46400,0.00125,0.00464,3.00311,0.00015,-0.00170,-0.02804,0.12252,0.06696,1.06556,68.11026,68.23543,67.83546,67.96063
5.47200,0.00125,0.00463,3.00289,0.00015,-0.00126,-0.02788,0.12243,0.06719,1.06642,68.11740,68.24259,67.84232,67.96750
5.48000,0.00125,0.00462,3.00266,0.00015,-0.00083,-0.02773,0.12233,0.06741,1.06725,68.12473,68.24992,67.84916,67.97436
5.48800,0.00125,0.00462,3.00244,0.00015,-0.00041,-0.02757,0.12224,0.06764,1.06806,68.13221,68.25743,67.85598,67.98120
5.49600,0.00125,0.00462,3.00222,0.00015,-0.00000,-0.02742,0.12214,0.06786,1.06884,68.13986,68.26508,67.86280,67.98803
5.50400,0.00125,0.00462,3.00200,0.00015,0.00038,-0.02727,0.12203,0.06808,1.06960,68.14764,68.27289,67.86961,67.99486
5.51200,0.00125,0.00463,3.00179,0.00015,0.00075,-0.02712,0.12193,0.06831,1.07033,68.15555,68.28082,67.87642,68.00169
5.52000,0.00125,0.00464,3.00157,0.00015,0.00109,-0.02697,0.12182,0.06853,1.07104,68.16359,68.28887,67.88324,68.00852
5.52800,0.00125,0.00465,3.00135,0.00015,0.00140,-0.02682,0.12171,0.06876,1.07173,68.17173,68.29703,67.89006,68.01536
5.53600,0.00125,0.00466,3.00114,0.00015,0.00168,-0.02667,0.12160,0.06898,1.07240,68.17996,68.30528,67.89690,68.02223
5.54400,0.00125,0.00468,3.00092,0.00015,0.00193,-0.02652,0.12149,0.06921,1.07304,68.18828,68.31362,67.90377,68.02911
5.55200,0.00125,0.00469,3.00071,0.00015,0.00215,-0.02637,0.12138,0.06943,1.07366,68.19667,68.32203,67.91066,68.03602
5.56000,0.00125,0.00471,3.00050,0.00015,0.00234,-0.02623,0.12126,0.06965,1.07426,68.20511,68.33050,67.91759,68.04297
5.56800,0.00125,0.00473,3.00029,0.00015,0.00249,-0.02608,0.12114,0.06988,1.07483,68.21361,68.33902,67.92456,68.04996
5.57600,0.00125,0.00476,3.00008,0.00015,0.00262,-0.02594,0.12102,0.07010,1.07539,68.22215,68.34757,67.93158,68.05700
5.58400,0.00125,0.00478,2.99988,0.00015,0.00271,-0.02579,0.12089,0.07032,1.07592,68.23072,68.35616,67.93864,68.06409
5.59200,0.00125,0.00480,2.99967,0.00015,0.00276,-0.02565,0.12077,0.07055,1.07643,68.23931,68.36477,67.94577,68.07123
5.60000,0.00125,0.00482,2.99946,0.00015,0.00279,-0.02551,0.12064,0.07077,1.07693,68.24791,68.37339,67.95295,68.07844
5.60800,0.00125,0.00485,2.99926,0.00015,0.00279,-0.02536,0.12051,0.07099,1.07740,68.25651,68.38202,67.96020,68.08571
5.61600,0.00125,0.00487,2.99906,0.00015,0.00276,-0.02522,0.12038,0.07122,1.07785,68.26511,68.39064,67.96752,68.09304
5.62400,0.00125,0.00489,2.99886,0.00015,0.00270,-0.02508,0.12024,0.07144,1.07828,68.27371,68.39925,67.97491,68.10045
5.63200,0.00125,0.00491,2.99865,0.00015,0.00262,-0.02494,0.12011,0.07166,1.07869,68.28228,68.40785,67.98238,68.10794
5.64000,0.00125,0.00493,2.99846,0.00015,0.00251,-0.02480,0.11997,0.07189,1.07908,68.29084,68.41643,67.98992,68.11550
5.64800,0.00125,0.00495,2.99826,0.00015,0.00238,-0.02467,0.11983,0.07211,1.07945,68.29938,68.42498,67.99754,68.12314
5.65600,0.00125,0.00497,2.99806,0.00015,0.00224,-0.02453,0.11969,0.07233,1.07981,68.30788,68.43351,68.00524,68.13086
5.66400,0.00125,0.00499,2.99786,0.00015,0.00208,-0.02439,0.11954,0.07256,1.08014,68.31636,68.44200,68.01302,68.13866
5.67200,0.00125,0.00500,2.99767,0.00014,0.00191,-0.02426,0.11940,0.07278,1.08046,68.32481,68.45047,68.02087,68.14653
5.68000,0.00125,0.00502,2.99747,0.00014,0.00172,-0.02412,0.11925,0.07300,1.08076,68.33322,68.45890,68.02881,68.15448
5.68800,0.00125,0.00503,2.99728,0.00014,0.00153,-0.02399,0.11910,0.07323,1.08104,68.34160,68.46729,68.03682,68.16251
5.69600,0.00125,0.00504,2.99709,0.00014,0.00133,-0.02385,0.11895,0.07345,1.08130,68.34995,68.47565,68.04491,68.17061
5.70400,0.00125,0.00505,2.99690,0.00014,0.00113,-0.02372,0.11879,0.07367,1.08155,68.35826,68.48398,68.05306,68.17879
5.71200,0.00125,0.00506,2.99671,0.00014,0.00093,-0.02359,0.11863,0.07389,1.08178,68.36654,68.49227,68.06129,68.18703
5.72000,0.00125,0.00506,2.99652,0.00014,0.00072,-0.02346,0.11847,0.07412,1.08199,68.37478,68.50054,68.06958,68.19533
5.72800,0.00125,0.00507,2.99633,0.00014,0.00052,-0.02333,0.11831,0.07434,1.08218,68.38300,68.50877,68.07793,68.20370
5.73600,0.00126,0.00507,2.99615,0.00014,0.00033,-0.02320,0.11815,0.07456,1.08236,68.39119,68.51697,68.08634,68.21212
5.74400,0.00126,0.00507,2.99596,0.00014,0.00014,-0.02307,0.11799,0.07479,1.08252,68.39935,68.52515,68.09481,68.22060
5.75200,0.00126,0.00507,2.99578,0.00014,-0.00005,-0.02294,0.11782,0.07501,1.08267,68.40749,68.53330,68.10332,68.22912
5.76000,0.00126,0.00507,2.99559,0.00013,-0.00022,-0.02281,0.11765,0.07523,1.08280,68.41561,68.54143,68.11187,68.23769
5.76800,0.00126,0.00507,2.99541,0.00013,-0.00038,-0.02268,0.11748,0.07545,1.08292,68.42371,68.54955,68.12046,68.24629
5.77600,0.00126,0.00506,2.99523,0.00013,-0.00053,-0.02256,0.11731,0.07568,1.08302,68.43180,68.55765,68.12908,68.25493
5.78400,0.00126,0.00506,2.99505,0.00013,-0.00066,-0.02243,0.11713,0.07590,1.08310,68.43987,68.56573,68.13773,68.26359
5.79200,0.00126,0.00505,2.99487,0.00013,-0.00078,-0.02231,0.11696,0.07612,1.08317,68.44794,68.57381,68.14640,68.27228
5.80000,0.00126,0.00504,2.99469,0.00013,-0.00089,-0.02218,0.11678,0.07634,1.08323,68.45599,68.58188,68.15509,68.28098
5.80800,0.00126,0.00504,2.99451,0.00013,-0.00098,-0.02206,0.11660,0.07657,1.08327,68.46405,68.58995,68.16379,68.28969
5.81600,0.00126,0.00503,2.99434,0.00013,-0.00106,-0.02193,0.11641,0.07679,1.08330,68.47210,68.59801,68.17249,68.29840
5.82400,0.00126,0.00502,2.99416,0.00013,-0.00112,-0.02181,0.11623,0.07701,1.08331,68.48015,68.60608,68.18120,68.30712
5.83200,0.00126,0.00501,2.99399,0.00013,-0.00117,-0.02169,0.11604,0.07723,1.08331,68.48821,68.61414,68.18990,68.31583
5.84000,0.00126,0.00500,2.99381,0.00013,-0.00120,-0.02157,0.11586,0.07746,1.08329,68.49627,68.62222,68.19859,68.32454
5.84800,0.00126,0.00499,2.99364,0.00012,-0.00122,-0.02145,0.11567,0.07768,1.08327,68.50433,68.63030,68.20726,68.33322
5.85600,0.00126,0.00498,2.99347,0.00012,-0.00122,-0.02133,0.11547,0.07790,1.08323,68.51241,68.63838,68.21592,68.34189
5.86400,0.00126,0.00497,2.99330,0.00012,-0.00121,-0.02121,0.11528,0.07812,1.08317,68.52049,68.64648,68.22455,68.35054
5.87200,0.00126,0.00496,2.99313,0.00012,-0.00119,-0.02109,0.11508,0.07835,1.08311,68.52858,68.65458,68.23316,68.35916
5.88000,0.00126,0.00495,2.99296,0.00012,-0.00115,-0.02098,0.11489,0.07857,1.08303,68.53669,68.66270,68.24174,68.36776
5.88800,0.00126,0.00495,2.99279,0.00012,-0.00111,-0.02086,0.11469,0.07879,1.08294,68.54480,68.67083,68.25029,68.37631
5.89600,0.00126,0.00494,2.99262,0.00012,-0.00105,-0.02074,0.11449,0.07901,1.08284,68.55292,68.67896,68.25879,68.38484
5.90400,0.00126,0.00493,2.99246,0.00012,-0.00099,-0.02063,0.11428,0.07924,1.08273,68.56105,68.68711,68.26727,68.39332
5.91200,0.00126,0.00492,2.99229,0.00012,-0.00092,-0.02051,0.11408,0.07946,1.08260,68.56919,68.69526,68.27570,68.40176
5.92000,0.00126,0.00492,2.99213,0.00012,-0.00084,-0.02040,0.11387,0.07968,1.08246,68.57734,68.70343,68.28408,68.41017
5.92800,0.00126,0.00491,2.99197,0.00012,-0.00076,-0.02029,0.11367,0.07990,1.08232,68.58550,68.71160,68.29242,68.41852
5.93600,0.00126,0.00490,2.99180,0.00012,-0.00067,-0.02017,0.11346,0.08012,1.08216,68.59366,68.71977,68.30072,68.42683
5.94400,0.00126,0.00490,2.99164,0.00012,-0.00058,-0.02006,0.11324,0.08035,1.08199,68.60182,68.72795,68.30897,68.43510
5.95200,0.00126,0.00490,2.99148,0.00012,-0.00049,-0.01995,0.11303,0.08057,1.08181,68.60999,68.73613,68.31717,68.44331
5.96000,0.00126,0.00489,2.99132,0.00012,-0.00039,-0.01984,0.11282,0.08079,1.08162,68.61815,68.74431,68.32532,68.45148
5.96800,0.00126,0.00489,2.99116,0.00012,-0.00030,-0.01973,0.11260,0.08101,1.08142,68.62631,68.75249,68.33343,68.45960
5.97600,0.00126,0.00489,2.99101,0.00012,-0.00020,-0.01962,0.11238,0.08124,1.08121,68.63447,68.76066,68.34148,68.46767
5.98400,0.00126,0.00489,2.99085,0.00012,-0.00011,-0.01951,0.11216,0.08146,1.08099,68.64261,68.76882,68.34949,68.47569
5.99200,0.00126,0.00489,2.99069,0.00012,-0.00002,-0.01940,0.11194,0.08168,1.08076,68.65075,68.77697,68.35744,68.48366
6.00000,0.00126,0.00489,2.99054,0.00011,0.00006,-0.01929,0.11171,0.08190,1.08052,68.65887,68.78510,68.36535,68.49159
6.00800,0.00126,0.00489,2.99038,0.00011,0.00014,-0.01918,0.11149,0.08212,1.08027,68.66697,68.79322,68.37322,68.49946
6.01600,0.00126,0.00489,2.99023,0.00011,0.00022,-0.01908,0.11126,0.08235,1.08002,68.67506,68.80132,68.38103,68.50730
6.02400,0.00126,0.00490,2.99008,0.00011,0.00029,-0.01897,0.11103,0.08257,1.07975,68.68312,68.80940,68.38880,68.51508
6.03200,0.00126,0.00490,2.98993,0.00011,0.00035,-0.01886,0.11080,0.08279,1.07948,68.69115,68.81745,68.39652,68.52282
6.04000,0.00126,0.00490,2.98977,0.00011,0.00041,-0.01876,0.11057,0.08301,1.07920,68.69916,68.82547,68.40421,68.53052
6.04800,0.00126,0.00491,2.98962,0.00011,0.00046,-0.01866,0.11034,0.08324,1.07891,68.70714,68.83346,68.41184,68.53817
6.05600,0.00126,0.00491,2.98948,0.00011,0.00051,-0.01855,0.11010,0.08346,1.07861,68.71508,68.84142,68.41944,68.54578
6.06400,0.00126,0.00491,2.98933,0.00011,0.00055,-0.01845,0.10987,0.08368,1.07830,68.72298,68.84934,68.42699,68.55335
6.07200,0.00126,0.00492,2.98918,0.00011,0.00058,-0.01835,0.10963,0.08390,1.07799,68.73085,68.85722,68.43450,68.56088
6.08000,0.00126,0.00492,2.98903,0.00011,0.00060,-0.01824,0.10939,0.08412,1.07767,68.73867,68.86506,68.44198,68.56837
6.08800,0.00126,0.00493,2.98889,0.00011,0.00062,-0.01814,0.10915,0.08435,1.07734,68.74645,68.87285,68.44942,68.57582
6.09600,0.00126,0.00494,2.98874,0.00011,0.00063,-0.01804,0.10891,0.08457,1.07701,68.75418,68.88060,68.45681,68.58323
6.10400,0.00126,0.00494,2.98860,0.00011,0.00063,-0.01794,0.10866,0.08479,1.07667,68.76187,68.88830,68.46418,68.59061
6.11200,0.00126,0.00495,2.98845,0.00011,0.00063,-0.01784,0.10842,0.08501,1.07632,68.76950,68.89595,68.47150,68.59795
6.12000,0.00126,0.00495,2.98831,0.00011,0.00062,-0.01774,0.10817,0.08524,1.07596,68.77708,68.90355,68.47879,68.60526
6.12800,0.00126,0.00496,2.98817,0.00011,0.00061,-0.01764,0.10792,0.08546,1.07560,68.78461,68.91109,68.48605,68.61253
6.13600,0.00126,0.00496,2.98803,0.00011,0.00059,-0.01754,0.10767,0.08568,1.07523,68.79209,68.91858,68.49327,68.61976
6.14400,0.00126,0.00497,2.98789,0.00011,0.00056,-0.01744,0.10742,0.08590,1.07486,68.79951,68.92601,68.50045,68.62696
6.15200,0.00126,0.00497,2.98775,0.00011,0.00053,-0.01735,0.10716,0.08613,1.07448,68.80687,68.93339,68.50760,68.63413
6.16000,0.00126,0.00497,2.98761,0.00010,0.00050,-0.01725,0.10691,0.08635,1.07410,68.81417,68.94071,68.51472,68.64126
6.16800,0.00126,0.00498,2.98747,0.00010,0.00047,-0.01715,0.10665,0.08657,1.07371,68.82142,68.94797,68.52180,68.64835
6.17600,0.00126,0.00498,2.98733,0.00010,0.00043,-0.01706,0.10639,0.08679,1.07331,68.82861,68.95517,68.52885,68.65541
6.18400,0.00126,0.00499,2.98720,0.00010,0.00039,-0.01696,0.10613,0.08702,1.07291,68.83574,68.96231,68.53586,68.66244
6.19200,0.00126,0.00499,2.98706,0.00010,0.00035,-0.01687,0.10587,0.08724,1.07251,68.84281,68.96940,68.54284,68.66943
6.20000,0.00126,0.00499,2.98693,0.00010,0.00030,-0.01677,0.10561,0.08746,1.07210,68.84982,68.97642,68.54978,68.67638
6.20800,0.00126,0.00499,2.98679,0.00010,0.00026,-0.01668,0.10535,0.08768,1.07168,68.85677,68.98339,68.55668,68.68330
6.21600,0.00126,0.00499,2.98666,0.00010,0.00022,-0.01659,0.10508,0.08791,1.07126,68.86366,68.99029,68.56355,68.69018
6.22400,0.00126,0.00500,2.98653,0.00010,0.00017,-0.01650,0.10481,0.08813,1.07084,68.87050,68.99714,68.57037,68.69702
6.23200,0.00126,0.00500,2.98640,0.00010,0.00013,-0.01640,0.10455,0.08835,1.07041,68.87727,69.00392,68.57716,68.70382
6.24000,0.00126,0.00500,2.98626,0.00010,0.00009,-0.01631,0.10428,0.08857,1.06998,68.88399,69.01065,68.58391,68.71058
6.24800,0.00126,0.00500,2.98613,0.00010,0.00005,-0.01622,0.10400,0.08880,1.06954,68.89065,69.01733,68.59062,68.71730
6.25600,0.00126,0.00500,2.98600,0.00010,0.00001,-0.01613,0.10373,0.08902,1.06910,68.89725,69.02394,68.59728,68.72397
6.26400,0.00127,0.00500,2.98587,0.00010,-0.00003,-0.01604,0.10346,0.08924,1.06866,68.90380,69.03050,68.60390,68.73061
6.27200,0.00127,0.00500,2.98575,0.00010,-0.00006,-0.01595,0.10318,0.08946,1.06821,68.91029,69.03700,68.61048,68.73719
6.28000,0.00127,0.00500,2.98562,0.00010,-0.00009,-0.01586,0.10291,0.08969,1.06776,68.91672,69.04344,68.61701,68.74374
6.28800,0.00127,0.00500,2.98549,0.00009,-0.00012,-0.01577,0.10263,0.08991,1.06731,68.92310,69.04984,68.62350,68.75023
6.29600,0.00127,0.00500,2.98537,0.00009,-0.00014,-0.01568,0.10235,0.09013,1.06685,68.92943,69.05617,68.62993,68.75668
6.30400,0.00127,0.00500,2.98524,0.00009,-0.00017,-0.01560,0.10207,0.09035,1.06639,68.93570,69.06246,68.63632,68.76308
6.31200,0.00127,0.00499,2.98512,0.00009,-0.00019,-0.01551,0.10178,0.09058,1.06593,68.94192,69.06869,68.64266,68.76943
6.32000,0.00127,0.00499,2.98499,0.00009,-0.00020,-0.01542,0.10150,0.09080,1.06546,68.94809,69.07487,68.64894,68.77572
6.32800,0.00127,0.00499,2.98487,0.00009,-0.00021,-0.01534,0.10121,0.09102,1.06499,68.95420,69.08099,68.65518,68.78197
6.33600,0.00127,0.00499,2.98475,0.00009,-0.00022,-0.01525,0.10093,0.09125,1.06452,68.96027,69.08707,68.66136,68.78816
6.34400,0.00127,0.00499,2.98462,0.00009,-0.00023,-0.01517,0.10064,0.09147,1.06405,68.96628,69.09309,68.66749,68.79430
6.35200,0.00127,0.00499,2.98450,0.00009,-0.00023,-0.01508,0.10035,0.09169,1.06357,68.97224,69.09907,68.67356,68.80038
6.36000,0.00127,0.00498,2.98438,0.00009,-0.00023,-0.01500,0.10006,0.09191,1.06310,68.97816,69.10499,68.67958,68.80641
6.36800,0.00127,0.00498,2.98426,0.00009,-0.00023,-0.01491,0.09977,0.09214,1.06262,68.98402,69.11087,68.68554,68.81238
6.37600,0.00127,0.00498,2.98414,0.00009,-0.00022,-0.01483,0.09947,0.09236,1.06213,68.98984,69.11669,68.69144,68.81829
6.38400,0.00127,0.00498,2.98402,0.00009,-0.00022,-0.01475,0.09918,0.09258,1.06165,68.99560,69.12247,68.69729,68.82415
6.39200,0.00127,0.00498,2.98391,0.00009,-0.00021,-0.01466,0.09888,0.09281,1.06117,69.00132,69.12820,68.70307,68.82995
6.40000,0.00127,0.00498,2.98379,0.00009,-0.00019,-0.01458,0.09859,0.09303,1.06068,69.00699,69.13387,68.70880,68.83569
6.40800,0.00127,0.00497,2.98367,0.00009,-0.00018,-0.01450,0.09829,0.09325,1.06019,69.01261,69.13950,68.71447,68.84137
6.41600,0.00127,0.00497,2.98356,0.00009,-0.00016,-0.01442,0.09799,0.09348,1.05970,69.01818,69.14508,68.72008,68.84699
6.42400,0.00127,0.00497,2.98344,0.00008,-0.00015,-0.01434,0.09769,0.09370,1.05921,69.02370,69.15062,68.72563,68.85255
6.43200,0.00127,0.00497,2.98333,0.00008,-0.00013,-0.01426,0.09738,0.09392,1.05872,69.02917,69.15610,68.73112,68.85805
6.44000,0.00127,0.00497,2.98321,0.00008,-0.00011,-0.01418,0.09708,0.09415,1.05823,69.03460,69.16153,68.73655,68.86349
6.44800,0.00127,0.00497,2.98310,0.00008,-0.00009,-0.01410,0.09677,0.09437,1.05774,69.03997,69.16691,68.74192,68.86887
6.45600,0.00127,0.00497,2.98298,0.00008,-0.00007,-0.01402,0.09647,0.09459,1.05724,69.04529,69.17225,68.74724,68.87419
6.46400,0.00127,0.00497,2.98287,0.00008,-0.00005,-0.01394,0.09616,0.09482,1.05675,69.05057,69.17753,68.75249,68.87945
6.47200,0.00127,0.00497,2.98276,0.00008,-0.00003,-0.01387,0.09585,0.09504,1.05625,69.05579,69.18276,68.75768,68.88465
6.48000,0.00127,0.00497,2.98265,0.00008,-0.00001,-0.01379,0.09554,0.09526,1.05576,69.06096,69.18794,68.76281,68.88979
6.48800,0.00127,0.00497,2.98254,0.00008,0.00000,-0.01371,0.09523,0.09549,1.05526,69.06608,69.19307,68.76788,68.89488
6.49600,0.00127,0.00497,2.98243,0.00008,0.00002,-0.01363,0.09492,0.09571,1.05477,69.07115,69.19815,68.77290,68.89990
6.50400,0.00127,0.00497,2.98232,0.00008,0.00004,-0.01356,0.09460,0.09593,1.05427,69.07617,69.20318,68.77785,68.90487
6.51200,0.00127,0.00497,2.98221,0.00008,0.00006,-0.01348,0.09429,0.09616,1.05377,69.08113,69.20815,68.78275,68.90977
6.52000,0.00127,0.00497,2.98210,0.00008,0.00007,-0.01341,0.09397,0.09638,1.05328,69.08605,69.21308,68.78759,68.91462
6.52800,0.00127,0.00497,2.98200,0.00008,0.00009,-0.01333,0.09366,0.09661,1.05278,69.09091,69.21794,68.79237,68.91941
6.53600,0.00127,0.00497,2.98189,0.00008,0.00010,-0.01326,0.09334,0.09683,1.05228,69.09571,69.22276,68.79710,68.92415
6.54400,0.00127,0.00497,2.98179,0.00008,0.00011,-0.01318,0.09302,0.09705,1.05179,69.10046,69.22752,68.80177,68.92882
6.55200,0.00127,0.00498,2.98168,0.00008,0.00012,-0.01311,0.09270,0.09728,1.05129,69.10516,69.23223,68.80638,68.93345
6.56000,0.00127,0.00498,2.98157,0.00008,0.00013,-0.01304,0.09237,0.09750,1.05079,69.10980,69.23688,68.81094,68.93801
6.56800,0.00127,0.00498,2.98147,0.00008,0.00013,-0.01296,0.09205,0.09772,1.05030,69.11439,69.24148,68.81544,68.94252
6.57600,0.00127,0.00498,2.98137,0.00008,0.00014,-0.01289,0.09173,0.09795,1.04980,69.11893,69.24602,68.81988,68.94698
6.58400,0.00127,0.00498,2.98126,0.00008,0.00014,-0.01282,0.09140,0.09817,1.04931,69.12340,69.25050,68.82428,68.95138
6.59200,0.00127,0.00498,2.98116,0.00008,0.00015,-0.01275,0.09107,0.09840,1.04882,69.12783,69.25494,68.82862,68.95572
6.60000,0.00127,0.00498,2.98106,0.00007,0.00015,-0.01268,0.09075,0.09862,1.04832,69.13219,69.25931,68.83290,68.96002
6.60800,0.00127,0.00498,2.98096,0.00007,0.00015,-0.01260,0.09042,0.09884,1.04783,69.13650,69.26363,68.83713,68.96426
6.61600,0.00127,0.00499,2.98086,0.00007,0.00015,-0.01253,0.09009,0.09907,1.04734,69.14076,69.26789,68.84131,68.96845
6.62400,0.00127,0.00499,2.98076,0.00007,0.00014,-0.01246,0.08976,0.09929,1.04685,69.14496,69.27210,68.84544,68.97258
6.63200,0.00127,0.00499,2.98066,0.00007,0.00014,-0.01239,0.08942,0.09952,1.04636,69.14910,69.27625,68.84952,68.97667
6.64000,0.00127,0.00499,2.98056,0.00007,0.00013,-0.01233,0.08909,0.09974,1.04588,69.15319,69.28034,68.85354,68.98070
6.64800,0.00127,0.00499,2.98046,0.00007,0.00013,-0.01226,0.08876,0.09997,1.04539,69.15722,69.28438,68.85752,68.98468
6.65600,0.00127,0.00499,2.98036,0.00007,0.00012,-0.01219,0.08842,0.10019,1.04491,69.16119,69.28837,68.86144,68.98861
6.66400,0.00127,0.00499,2.98026,0.00007,0.00011,-0.01212,0.08808,0.10042,1.04442,69.16511,69.29229,68.86531,68.99249
6.67200,0.00127,0.00499,2.98017,0.00007,0.00011,-0.01205,0.08775,0.10064,1.04394,69.16898,69.29616,68.86913,68.99632
6.68000,0.00127,0.00499,2.98007,0.00007,0.00010,-0.01198,0.08741,0.10086,1.04346,69.17279,69.29998,68.87290,69.00010
6.68800,0.00127,0.00500,2.97997,0.00007,0.00009,-0.01192,0.08707,0.10109,1.04298,69.17654,69.30374,68.87663,69.00383
6.69600,0.00127,0.00500,2.97988,0.00007,0.00008,-0.01185,0.08673,0.10131,1.04250,69.18024,69.30745,68.88030,69.00750
6.70400,0.00127,0.00500,2.97978,0.00007,0.00007,-0.01178,0.08638,0.10154,1.04203,69.18388,69.31110,68.88392,69.01113
6.71200,0.00127,0.00500,2.97969,0.00007,0.00006,-0.01172,0.08604,0.10176,1.04155,69.18747,69.31470,68.88749,69.01471
6.72000,0.00127,0.00500,2.97960,0.00007,0.00005,-0.01165,0.08570,0.10199,1.04108,69.19101,69.31824,68.89102,69.01825
6.72800,0.00127,0.00500,2.97950,0.00007,0.00004,-0.01159,0.08535,0.10221,1.04061,69.19449,69.32173,68.89449,69.02173
6.73600,0.00127,0.00500,2.97941,0.00007,0.00003,-0.01152,0.08500,0.10244,1.04014,69.19793,69.32516,68.89792,69.02516
6.74400,0.00127,0.00500,2.97932,0.00007,0.00002,-0.01146,0.08466,0.10266,1.03967,69.20130,69.32855,68.90130,69.02854
6.75200,0.00127,0.00500,2.97923,0.00007,0.00001,-0.01139,0.08431,0.10289,1.03921,69.20463,69.33188,68.90463,69.03188
6.76000,0.00127,0.00500,2.97914,0.00007,0.00001,-0.01133,0.08396,0.10311,1.03875,69.20790,69.33516,68.90791,69.03516
6.76800,0.00127,0.00500,2.97904,0.00006,-0.00000,-0.01127,0.08361,0.10334,1.03829,69.21112,69.33839,68.91114,69.03840
6.77600,0.00127,0.00500,2.97895,0.00006,-0.00001,-0.01120,0.08326,0.10356,1.03783,69.21430,69.34157,68.91432,69.04159
6.78400,0.00127,0.00500,2.97887,0.00006,-0.00002,-0.01114,0.08290,0.10379,1.03737,69.21742,69.34469,68.91746,69.04473
6.79200,0.00127,0.00500,2.97878,0.00006,-0.00002,-0.01108,0.08255,0.10401,1.03692,69.22049,69.34777,68.92054,69.04783
6.80000,0.00127,0.00500,2.97869,0.00006,-0.00003,-0.01102,0.08220,0.10424,1.03647,69.22351,69.35080,68.92358,69.05087
6.80800,0.00127,0.00500,2.97860,0.00006,-0.00003,-0.01095,0.08184,0.10446,1.03602,69.22649,69.35378,68.92657,69.05387
6.81600,0.00127,0.00500,2.97851,0.00006,-0.00004,-0.01089,0.08148,0.10469,1.03557,69.22941,69.35671,68.92952,69.05681
6.82400,0.00127,0.00500,2.97842,0.00006,-0.00004,-0.01083,0.08112,0.10491,1.03512,69.23229,69.35959,68.93241,69.05971
6.83200,0.00127,0.00500,2.97834,0.00006,-0.00004,-0.01077,0.08077,0.10514,1.03468,69.23512,69.36242,68.93526,69.06257
6.84000,0.00127,0.00500,2.97825,0.00006,-0.00004,-0.01071,0.08041,0.10537,1.03424,69.23790,69.36521,68.93806,69.06537
6.84800,0.00127,0.00500,2.97817,0.00006,-0.00004,-0.01065,0.08005,0.10559,1.03381,69.24063,69.36795,68.94081,69.06813
6.85600,0.00127,0.00500,2.97808,0.00006,-0.00004,-0.01059,0.07968,0.10582,1.03337,69.24332,69.37064,68.94352,69.07084
6.86400,0.00127,0.00500,2.97800,0.00006,-0.00004,-0.01053,0.07932,0.10604,1.03294,69.24597,69.37329,68.94618,69.07350
6.87200,0.00127,0.00500,2.97791,0.00006,-0.00004,-0.01047,0.07896,0.10627,1.03251,69.24856,69.37589,68.94879,69.07612
6.88000,0.00127,0.00500,2.97783,0.00006,-0.00004,-0.01041,0.07859,0.10649,1.03208,69.25112,69.37845,68.95135,69.07869
6.88800,0.00127,0.00500,2.97774,0.00006,-0.00004,-0.01035,0.07823,0.10672,1.03166,69.25362,69.38096,68.95387,69.08121
6.89600,0.00127,0.00500,2.97766,0.00006,-0.00004,-0.01030,0.07786,0.10695,1.03123,69.25609,69.38343,68.95634,69.08369
6.90400,0.00127,0.00500,2.97758,0.00006,-0.00004,-0.01024,0.07749,0.10717,1.03082,69.25851,69.38586,68.95877,69.08612
6.91200,0.00127,0.00500,2.97750,0.00006,-0.00003,-0.01018,0.07713,0.10740,1.03040,69.26088,69.38824,68.96115,69.08850
6.92000,0.00127,0.00500,2.97742,0.00006,-0.00003,-0.01012,0.07676,0.10762,1.02999,69.26322,69.39057,68.96348,69.09084
6.92800,0.00127,0.00500,2.97734,0.00006,-0.00003,-0.01007,0.07639,0.10785,1.02958,69.26551,69.39287,68.96577,69.09313
6.93600,0.00127,0.00500,2.97725,0.00006,-0.00002,-0.01001,0.07602,0.10808,1.02917,69.26775,69.39512,68.96802,69.09538
6.94400,0.00127,0.00500,2.97717,0.00006,-0.00002,-0.00995,0.07564,0.10830,1.02876,69.26996,69.39733,68.97022,69.09759
6.95200,0.00127,0.00500,2.97710,0.00006,-0.00002,-0.00990,0.07527,0.10853,1.02836,69.27212,69.39949,68.97237,69.09975
6.96000,0.00127,0.00500,2.97702,0.00005,-0.00001,-0.00984,0.07490,0.10876,1.02796,69.27424,69.40162,68.97449,69.10186
6.96800,0.00127,0.00500,2.97694,0.00005,-0.00001,-0.00979,0.07452,0.10898,1.02757,69.27632,69.40370,68.97655,69.10394
6.97600,0.00127,0.00500,2.97686,0.00005,-0.00000,-0.00973,0.07415,0.10921,1.02717,69.27836,69.40574,68.97858,69.10597
6.98400,0.00127,0.00500,2.97678,0.00005,-0.00000,-0.00968,0.07377,0.10943,1.02678,69.28035,69.40774,68.98056,69.10795
6.99200,0.00127,0.00500,2.97670,0.00005,0.00000,-0.00962,0.07339,0.10966,1.02639,69.28231,69.40970,68.98251,69.10990
7.00000,0.00127,0.00500,2.97663,0.00005,0.00001,-0.00957,0.07302,0.10989,1.02601,69.28422,69.41162,68.98441,69.11180
7.00800,0.00127,0.00500,2.97655,0.00005,0.00001,-0.00952,0.07264,0.11011,1.02563,69.28610,69.41350,68.98626,69.11366
7.01600,0.00127,0.00500,2.97647,0.00005,0.00001,-0.00946,0.07226,0.11034,1.02525,69.28794,69.41534,68.98808,69.11548
7.02400,0.00127,0.00500,2.97640,0.00005,0.00002,-0.00941,0.07188,0.11057,1.02488,69.28973,69.41714,68.98986,69.11726
7.03200,0.00127,0.00500,2.97632,0.00005,0.00002,-0.00936,0.07149,0.11079,1.02450,69.29149,69.41890,68.99159,69.11900
7.04000,0.00127,0.00500,2.97625,0.00005,0.00002,-0.00930,0.07111,0.11102,1.02413,69.29320,69.42062,68.99329,69.12070
7.04800,0.00127,0.00500,2.97617,0.00005,0.00002,-0.00925,0.07073,0.11125,1.02377,69.29488,69.42230,68.99495,69.12236
7.05600,0.00127,0.00500,2.97610,0.00005,0.00002,-0.00920,0.07034,0.11148,1.02341,69.29652,69.42394,68.99657,69.12398
7.06400,0.00127,0.00500,2.97603,0.00005,0.00003,-0.00915,0.06996,0.11170,1.02305,69.29812,69.42554,68.99815,69.12557
7.07200,0.00127,0.00500,2.97595,0.00005,0.00003,-0.00910,0.06957,0.11193,1.02269,69.29968,69.42711,68.99969,69.12711
7.08000,0.00127,0.00500,2.97588,0.00005,0.00003,-0.00905,0.06919,0.11216,1.02234,69.30121,69.42864,69.00119,69.12862
7.08800,0.00127,0.00500,2.97581,0.00005,0.00003,-0.00899,0.06880,0.11238,1.02199,69.30270,69.43013,69.00266,69.13009
7.09600,0.00127,0.00500,2.97574,0.00005,0.00003,-0.00894,0.06841,0.11261,1.02164,69.30415,69.43158,69.00409,69.13152
7.10400,0.00127,0.00500,2.97566,0.00005,0.00003,-0.00889,0.06802,0.11284,1.02130,69.30556,69.43300,69.00548,69.13292
7.11200,0.00127,0.00500,2.97559,0.00005,0.00003,-0.00884,0.06763,0.11307,1.02095,69.30694,69.43438,69.00684,69.13428
7.12000,0.00127,0.00500,2.97552,0.00005,0.00003,-0.00879,0.06724,0.11329,1.02062,69.30828,69.43572,69.00817,69.13561
7.12800,0.00127,0.00500,2.97545,0.00005,0.00003,-0.00874,0.06685,0.11352,1.02028,69.30958,69.43703,69.00945,69.13690
7.13600,0.00127,0.00500,2.97538,0.00005,0.00003,-0.00869,0.06646,0.11375,1.01995,69.31085,69.43830,69.01071,69.13815
7.14400,0.00127,0.00500,2.97531,0.00005,0.00002,-0.00865,0.06606,0.11397,1.01962,69.31208,69.43953,69.01193,69.13937
7.15200,0.00127,0.00500,2.97524,0.00005,0.00002,-0.00860,0.06567,0.11420,1.01930,69.31328,69.44073,69.01311,69.14056
7.16000,0.00127,0.00500,2.97517,0.00005,0.00002,-0.00855,0.06527,0.11443,1.01898,69.31445,69.44190,69.01426,69.14172
7.16800,0.00127,0.00500,2.97511,0.00005,0.00002,-0.00850,0.06488,0.11466,1.01866,69.31557,69.44303,69.01538,69.14284
7.17600,0.00127,0.00500,2.97504,0.00005,0.00002,-0.00845,0.06448,0.11489,1.01835,69.31667,69.44413,69.01647,69.14393
7.18400,0.00127,0.00500,2.97497,0.00005,0.00001,-0.00841,0.06408,0.11511,1.01803,69.31773,69.44519,69.01752,69.14498
7.19200,0.00127,0.00500,2.97490,0.00004,0.00001,-0.00836,0.06369,0.11534,1.01773,69.31876,69.44622,69.01854,69.14600
7.20000,0.00127,0.00500,2.97484,0.00004,0.00001,-0.00831,0.06329,0.11557,1.01742,69.31976,69.44722,69.01953,69.14700
7.20800,0.00127,0.00500,2.97477,0.00004,0.00001,-0.00826,0.06289,0.11580,1.01712,69.32072,69.44818,69.02049,69.14796
7.21600,0.00127,0.00500,2.97470,0.00004,0.00001,-0.00822,0.06249,0.11602,1.01682,69.32165,69.44912,69.02142,69.14889
7.22400,0.00127,0.00500,2.97464,0.00004,0.00000,-0.00817,0.06209,0.11625,1.01652,69.32255,69.45002,69.02232,69.14978
7.23200,0.00127,0.00500,2.97457,0.00004,0.00000,-0.00813,0.06168,0.11648,1.01623,69.32342,69.45089,69.02318,69.15065
7.24000,0.00127,0.00500,2.97451,0.00004,-0.00000,-0.00808,0.06128,0.11671,1.01594,69.32426,69.45173,69.02402,69.15149
7.24800,0.00127,0.00500,2.97444,0.00004,-0.00000,-0.00803,0.06088,0.11694,1.01566,69.32507,69.45254,69.02483,69.15230
7.25600,0.00127,0.00500,2.97438,0.00004,-0.00000,-0.00799,0.06047,0.11717,1.01537,69.32584,69.45332,69.02561,69.15308
7.26400,0.00127,0.00500,2.97432,0.00004,-0.00001,-0.00794,0.06007,0.11739,1.01510,69.32659,69.45406,69.02636,69.15383
7.27200,0.00127,0.00500,2.97425,0.00004,-0.00001,-0.00790,0.05966,0.11762,1.01482,69.32731,69.45478,69.02708,69.15455
7.28000,0.00127,0.00500,2.97419,0.00004,-0.00001,-0.00785,0.05926,0.11785,1.01455,69.32800,69.45547,69.02777,69.15525
7.28800,0.00127,0.00500,2.97413,0.00004,-0.00001,-0.00781,0.05885,0.11808,1.01428,69.32866,69.45614,69.02843,69.15591
7.29600,0.00127,0.00500,2.97406,0.00004,-0.00001,-0.00777,0.05844,0.11831,1.01401,69.32929,69.45677,69.02907,69.15655
7.30400,0.00127,0.00500,2.97400,0.00004,-0.00001,-0.00772,0.05803,0.11854,1.01375,69.32990,69.45738,69.02968,69.15716
7.31200,0.00127,0.00500,2.97394,0.00004,-0.00001,-0.00768,0.05763,0.11876,1.01349,69.33048,69.45796,69.03026,69.15774
7.32000,0.00127,0.00500,2.97388,0.00004,-0.00001,-0.00764,0.05722,0.11899,1.01323,69.33103,69.45851,69.03082,69.15830
7.32800,0.00127,0.00500,2.97382,0.00004,-0.00002,-0.00759,0.05680,0.11922,1.01298,69.33155,69.45903,69.03135,69.15883
7.33600,0.00127,0.00500,2.97376,0.00004,-0.00002,-0.00755,0.05639,0.11945,1.01273,69.33205,69.45953,69.03185,69.15933
7.34400,0.00127,0.00500,2.97370,0.00004,-0.00002,-0.00751,0.05598,0.11968,1.01248,69.33252,69.46001,69.03232,69.15981
7.35200,0.00127,0.00500,2.97364,0.00004,-0.00002,-0.00746,0.05557,0.11991,1.01223,69.33297,69.46046,69.03278,69.16026
7.36000,0.00127,0.00500,2.97358,0.00004,-0.00002,-0.00742,0.05516,0.12014,1.01199,69.33339,69.46088,69.03320,69.16069
7.36800,0.00127,0.00500,2.97352,0.00004,-0.00002,-0.00738,0.05474,0.12037,1.01175,69.33379,69.46128,69.03360,69.16109
7.37600,0.00127,0.00500,2.97346,0.00004,-0.00002,-0.00734,0.05433,0.12060,1.01152,69.33416,69.46165,69.03398,69.16147
7.38400,0.00127,0.00500,2.97340,0.00004,-0.00002,-0.00730,0.05391,0.12082,1.01129,69.33451,69.46200,69.03433,69.16182
7.39200,0.00127,0.00500,2.97334,0.00004,-0.00002,-0.00726,0.05350,0.12105,1.01106,69.33484,69.46233,69.03466,69.16215
7.40000,0.00127,0.00500,2.97328,0.00004,-0.00002,-0.00722,0.05308,0.12128,1.01083,69.33514,69.46263,69.03497,69.16246
7.40800,0.00127,0.00500,2.97322,0.00004,-0.00002,-0.00717,0.05266,0.12151,1.01061,69.33542,69.46291,69.03525,69.16274
7.41600,0.00127,0.00500,2.97317,0.00004,-0.00001,-0.00713,0.05224,0.12174,1.01039,69.33568,69.46317,69.03551,69.16300
7.42400,0.00127,0.00500,2.97311,0.00004,-0.00001,-0.00709,0.05182,0.12197,1.01018,69.33591,69.46341,69.03575,69.16324
7.43200,0.00127,0.00500,2.97305,0.00004,-0.00001,-0.00705,0.05140,0.12220,1.00996,69.33613,69.46362,69.03596,69.16345
7.44000,0.00127,0.00500,2.97300,0.00004,-0.00001,-0.00701,0.05098,0.12243,1.00975,69.33632,69.46381,69.03615,69.16364
7.44800,0.00127,0.00500,2.97294,0.00004,-0.00001,-0.00697,0.05056,0.12266,1.00954,69.33649,69.46398,69.03632,69.16382
7.45600,0.00127,0.00500,2.97288,0.00004,-0.00001,-0.00693,0.05014,0.12289,1.00934,69.33664,69.46413,69.03647,69.16397
7.46400,0.00127,0.00500,2.97283,0.00004,-0.00001,-0.00690,0.04972,0.12312,1.00914,69.33677,69.46426,69.03660,69.16409
7.47200,0.00127,0.00500,2.97277,0.00004,-0.00001,-0.00686,0.04930,0.12335,1.00894,69.33688,69.46437,69.03671,69.16420
7.48000,0.00127,0.00500,2.97272,0.00003,-0.00001,-0.00682,0.04888,0.12358,1.00875,69.33697,69.46446,69.03680,69.16429
7.48800,0.00127,0.00500,2.97266,0.00003,-0.00001,-0.00678,0.04845,0.12381,1.00855,69.33704,69.46453,69.03686,69.16436
7.49600,0.00127,0.00500,2.97261,0.00003,-0.00001,-0.00674,0.04803,0.12404,1.00836,69.33709,69.46458,69.03691,69.16441
7.50400,0.00127,0.00500,2.97256,0.00003,-0.00001,-0.00670,0.04760,0.12427,1.00818,69.33712,69.46461,69.03694,69.16443
7.51200,0.00127,0.00500,2.97250,0.00003,-0.00001,-0.00666,0.04718,0.12450,1.00799,69.33713,69.46462,69.03695,69.16444
7.52000,0.00127,0.00500,2.97245,0.00003,-0.00001,-0.00663,0.04675,0.12473,1.00781,69.33712,69.46461,69.03694,69.16444
7.52800,0.00127,0.00500,2.97240,0.00003,-0.00001,-0.00659,0.04632,0.12496,1.00763,69.33710,69.46459,69.03692,69.16441
7.53600,0.00127,0.00500,2.97234,0.00003,-0.00001,-0.00655,0.04589,0.12519,1.00746,69.33705,69.46455,69.03687,69.16436
7.54400,0.00127,0.00500,2.97229,0.00003,-0.00000,-0.00652,0.04547,0.12542,1.00729,69.33699,69.46449,69.03681,69.16430
7.55200,0.00127,0.00500,2.97224,0.00003,-0.00000,-0.00648,0.04504,0.12565,1.00712,69.33692,69.46441,69.03673,69.16422
7.56000,0.00127,0.00500,2.97219,0.00003,-0.00000,-0.00644,0.04461,0.12588,1.00695,69.33682,69.46431,69.03663,69.16412
7.56800,0.00127,0.00500,2.97214,0.00003,-0.00000,-0.00641,0.04418,0.12611,1.00679,69.33671,69.46420,69.03652,69.16401
7.57600,0.00127,0.00500,2.97209,0.00003,-0.00000,-0.00637,0.04375,0.12634,1.00663,69.33658,69.46407,69.03639,69.16388
7.58400,0.00127,0.00500,2.97203,0.00003,-0.00000,-0.00633,0.04332,0.12657,1.00647,69.33644,69.46393,69.03624,69.16373
7.59200,0.00127,0.00500,2.97198,0.00003,-0.00000,-0.00630,0.04289,0.12680,1.00631,69.33628,69.46377,69.03608,69.16357
7.60000,0.00127,0.00500,2.97193,0.00003,-0.00000,-0.00626,0.04245,0.12703,1.00616,69.33610,69.46359,69.03590,69.16339
7.60800,0.00127,0.00500,2.97188,0.00003,-0.00000,-0.00623,0.04202,0.12726,1.00601,69.33591,69.46340,69.03571,69.16320
7.61600,0.00127,0.00500,2.97183,0.00003,-0.00000,-0.00619,0.04159,0.12749,1.00586,69.33571,69.46320,69.03550,69.16299
7.62400,0.00127,0.00500,2.97178,0.00003,-0.00000,-0.00616,0.04115,0.12772,1.00572,69.33549,69.46298,69.03528,69.16277
7.63200,0.00127,0.00500,2.97173,0.00003,-0.00000,-0.00612,0.04072,0.12795,1.00557,69.33525,69.46274,69.03504,69.16253
7.64000,0.00127,0.00500,2.97169,0.00003,-0.00000,-0.00609,0.04028,0.12818,1.00543,69.33500,69.46249,69.03479,69.16228
7.64800,0.00127,0.00500,2.97164,0.00003,-0.00001,-0.00605,0.03985,0.12841,1.00530,69.33474,69.46223,69.03453,69.16202
7.65600,0.00127,0.00500,2.97159,0.00003,-0.00001,-0.00602,0.03941,0.12864,1.00516,69.33446,69.46195,69.03425,69.16174
7.66400,0.00127,0.00500,2.97154,0.00003,-0.00001,-0.00598,0.03897,0.12887,1.00503,69.33417,69.46166,69.03396,69.16145
7.67200,0.00127,0.00500,2.97149,0.00003,-0.00001,-0.00595,0.03854,0.12910,1.00490,69.33387,69.46135,69.03366,69.16115
7.68000,0.00127,0.00500,2.97144,0.00003,-0.00001,-0.00592,0.03810,0.12934,1.00477,69.33355,69.46104,69.03334,69.16083
7.68800,0.00127,0.00500,2.97140,0.00003,-0.00001,-0.00588,0.03766,0.12957,1.00465,69.33322,69.46071,69.03301,69.16050
7.69600,0.00127,0.00500,2.97135,0.00003,-0.00001,-0.00585,0.03722,0.12980,1.00453,69.33288,69.46036,69.03267,69.16016
7.70400,0.00127,0.00500,2.97130,0.00003,-0.00001,-0.00582,0.03678,0.13003,1.00441,69.33253,69.46001,69.03232,69.15981
7.71200,0.00127,0.00500,2.97126,0.00003,-0.00001,-0.00578,0.03634,0.13026,1.00429,69.33216,69.45964,69.03196,69.15944
7.72000,0.00127,0.00500,2.97121,0.00003,-0.00001,-0.00575,0.03590,0.13049,1.00418,69.33178,69.45927,69.03158,69.15907
7.72800,0.00127,0.00500,2.97116,0.00003,-0.00001,-0.00572,0.03546,0.13072,1.00406,69.33140,69.45888,69.03120,69.15868
7.73600,0.00127,0.00500,2.97112,0.00003,-0.00001,-0.00568,0.03502,0.13095,1.00396,69.33100,69.45848,69.03080,69.15828
7.74400,0.00127,0.00500,2.97107,0.00003,-0.00001,-0.00565,0.03457,0.13118,1.00385,69.33059,69.45807,69.03039,69.15788
7.75200,0.00127,0.00500,2.97103,0.00003,-0.00001,-0.00562,0.03413,0.13142,1.00374,69.33017,69.45765,69.02998,69.15746
7.76000,0.00127,0.00500,2.97098,0.00003,-0.00001,-0.00559,0.03369,0.13165,1.00364,69.32974,69.45722,69.02955,69.15703
7.76800,0.00127,0.00500,2.97094,0.00003,-0.00001,-0.00556,0.03324,0.13188,1.00354,69.32930,69.45678,69.02911,69.15659
7.77600,0.00127,0.00500,2.97089,0.00003,-0.00001,-0.00552,0.03280,0.13211,1.00344,69.32885,69.45632,69.02867,69.15614
7.78400,0.00127,0.00500,2.97085,0.00003,-0.00001,-0.00549,0.03236,0.13234,1.00335,69.32839,69.45586,69.02821,69.15569
7.79200,0.00127,0.00500,2.97081,0.00003,-0.00001,-0.00546,0.03191,0.13257,1.00325,69.32792,69.45539,69.02774,69.15522
7.80000,0.00127,0.00500,2.97076,0.00003,-0.00001,-0.00543,0.03146,0.13280,1.00316,69.32744,69.45492,69.02727,69.15475
7.80800,0.00127,0.00500,2.97072,0.00003,-0.00001,-0.00540,0.03102,0.13304,1.00307,69.32695,69.45443,69.02679,69.15426
7.81600,0.00127,0.00500,2.97068,0.00003,-0.00001,-0.00537,0.03057,0.13327,1.00298,69.32646,69.45393,69.02630,69.15377
7.82400,0.00127,0.00500,2.97063,0.00003,-0.00001,-0.00534,0.03012,0.13350,1.00290,69.32596,69.45343,69.02580,69.15327
7.83200,0.00127,0.00500,2.97059,0.00003,-0.00001,-0.00531,0.02968,0.13373,1.00282,69.32545,69.45292,69.02529,69.15276
7.84000,0.00127,0.00500,2.97055,0.00003,-0.00001,-0.00528,0.02923,0.13396,1.00274,69.32493,69.45240,69.02477,69.15224
7.84800,0.00127,0.00500,2.97051,0.00003,-0.00001,-0.00525,0.02878,0.13420,1.00266,69.32440,69.45187,69.02425,69.15172
7.85600,0.00127,0.00500,2.97046,0.00003,-0.00001,-0.00522,0.02833,0.13443,1.00258,69.32387,69.45134,69.02372,69.15119
7.86400,0.00127,0.00500,2.97042,0.00003,-0.00001,-0.00519,0.02788,0.13466,1.00251,69.32333,69.45079,69.02318,69.15065
7.87200,0.00127,0.00500,2.97038,0.00002,-0.00001,-0.00516,0.02743,0.13489,1.00243,69.32278,69.45025,69.02264,69.15011
7.88000,0.00127,0.00500,2.97034,0.00002,-0.00001,-0.00513,0.02698,0.13512,1.00236,69.32222,69.44969,69.02209,69.14956
7.88800,0.00127,0.00500,2.97030,0.00002,-0.00001,-0.00510,0.02653,0.13536,1.00229,69.32166,69.44913,69.02153,69.14900
7.89600,0.00127,0.00500,2.97026,0.00002,-0.00001,-0.00507,0.02608,0.13559,1.00223,69.32110,69.44856,69.02097,69.14843
7.90400,0.00127,0.00500,2.97022,0.00002,-0.00001,-0.00504,0.02562,0.13582,1.00216,69.32052,69.44799,69.02040,69.14786
7.91200,0.00127,0.00500,2.97018,0.00002,-0.00001,-0.00501,0.02517,0.13605,1.00210,69.31995,69.44741,69.01982,69.14728
7.92000,0.00127,0.00500,2.97014,0.00002,-0.00001,-0.00499,0.02472,0.13628,1.00204,69.31936,69.44682,69.01924,69.14670
7.92800,0.00127,0.00500,2.97010,0.00002,-0.00001,-0.00496,0.02426,0.13652,1.00198,69.31877,69.44623,69.01866,69.14611
7.93600,0.00127,0.00500,2.97006,0.00002,-0.00001,-0.00493,0.02381,0.13675,1.00192,69.31818,69.44563,69.01806,69.14552
7.94400,0.00127,0.00500,2.97002,0.00002,-0.00001,-0.00490,0.02336,0.13698,1.00187,69.31758,69.44503,69.01747,69.14492
7.95200,0.00127,0.00500,2.96998,0.00002,-0.00001,-0.00487,0.02290,0.13721,1.00182,69.31697,69.44443,69.01686,69.14432
7.96000,0.00127,0.00500,2.96994,0.00002,-0.00001,-0.00484,0.02245,0.13745,1.00176,69.31636,69.44382,69.01626,69.14371
7.96800,0.00127,0.00500,2.96990,0.00002,-0.00001,-0.00482,0.02199,0.13768,1.00171,69.31575,69.44320,69.01565,69.14310
7.97600,0.00127,0.00500,2.96986,0.00002,-0.00001,-0.00479,0.02153,0.13791,1.00167,69.31513,69.44258,69.01503,69.14248
7.98400,0.00127,0.00500,2.96982,0.00002,-0.00001,-0.00476,0.02108,0.13814,1.00162,69.31451,69.44196,69.01441,69.14186
7.99200,0.00127,0.00500,2.96979,0.00002,-0.00001,-0.00474,0.02062,0.13838,1.00157,69.31388,69.44133,69.01379,69.14124
8.00000,0.00127,0.00500,2.96975,0.00002,-0.00001,-0.00471,0.02016,0.13861,1.00153,69.31325,69.44070,69.01316,69.14061
8.00800,0.00127,0.00500,2.96971,0.00002,-0.00001,-0.00468,0.01970,0.13884,1.00149,69.31262,69.44006,69.01253,69.13998
8.01600,0.00127,0.00500,2.96967,0.00002,-0.00001,-0.00465,0.01925,0.13907,1.00145,69.31198,69.43943,69.01189,69.13934
8.02400,0.00127,0.00500,2.96964,0.00002,-0.00001,-0.00463,0.01879,0.13931,1.00141,69.31134,69.43878,69.01125,69.13870
8.03200,0.00127,0.00500,2.96960,0.00002,-0.00001,-0.00460,0.01833,0.13954,1.00138,69.31070,69.43814,69.01061,69.13806
8.04000,0.00127,0.00500,2.96956,0.00002,-0.00001,-0.00458,0.01787,0.13977,1.00134,69.31005,69.43749,69.00997,69.13741
8.04800,0.00127,0.00500,2.96952,0.00002,-0.00001,-0.00455,0.01741,0.14001,1.00131,69.30940,69.43684,69.00932,69.13676
8.05600,0.00127,0.00500,2.96949,0.00002,-0.00001,-0.00452,0.01695,0.14024,1.00128,69.30875,69.43619,69.00867,69.13611
8.06400,0.00127,0.00500,2.96945,0.00002,-0.00001,-0.00450,0.01649,0.14047,1.00125,69.30809,69.43553,69.00802,69.13546
8.07200,0.00127,0.00500,2.96942,0.00002,-0.00001,-0.00447,0.01602,0.14070,1.00122,69.30744,69.43488,69.00737,69.13481
8.08000,0.00127,0.00500,2.96938,0.00002,-0.00001,-0.00445,0.01556,0.14094,1.00119,69.30678,69.43422,69.00671,69.13415
8.08800,0.00127,0.00500,2.96934,0.00002,-0.00001,-0.00442,0.01510,0.14117,1.00117,69.30612,69.43355,69.00605,69.13349
8.09600,0.00127,0.00500,2.96931,0.00002,-0.00001,-0.00440,0.01464,0.14140,1.00114,69.30546,69.43289,69.00539,69.13283
8.10400,0.00127,0.00500,2.96927,0.00002,-0.00001,-0.00437,0.01418,0.14164,1.00112,69.30479,69.43222,69.00473,69.13216
8.11200,0.00127,0.00500,2.96924,0.00002,-0.00001,-0.00435,0.01371,0.14187,1.00110,69.30413,69.43156,69.00407,69.13150
8.12000,0.00127,0.00500,2.96920,0.00002,-0.00001,-0.00432,0.01325,0.14210,1.00108,69.30346,69.43089,69.00340,69.13083
8.12800,0.00127,0.00500,2.96917,0.00002,-0.00001,-0.00430,0.01278,0.14234,1.00106,69.30279,69.43022,69.00274,69.13017
8.13600,0.00127,0.00500,2.96914,0.00002,-0.00001,-0.00427,0.01232,0.14257,1.00104,69.30212,69.42955,69.00207,69.12950
8.14400,0.00127,0.00500,2.96910,0.00002,-0.00001,-0.00425,0.01185,0.14280,1.00102,69.30145,69.42888,69.00140,69.12883
8.15200,0.00127,0.00500,2.96907,0.00002,-0.00001,-0.00422,0.01139,0.14304,1.00101,69.30078,69.42820,69.00073,69.12816
8.16000,0.00127,0.00500,2.96903,0.00002,-0.00001,-0.00420,0.01092,0.14327,1.00100,69.30011,69.42753,69.00006,69.12749
8.16800,0.00127,0.00500,2.96900,0.00002,-0.00001,-0.00417,0.01046,0.14350,1.00098,69.29943,69.42686,68.99939,69.12682
8.17600,0.00127,0.00500,2.96897,0.00002,-0.00001,-0.00415,0.00999,0.14374,1.00097,69.29876,69.42618,68.99872,69.12614
8.18400,0.00127,0.00500,2.96893,0.00002,-0.00001,-0.00413,0.00952,0.14397,1.00096,69.29809,69.42551,68.99805,69.12547
8.19200,0.00127,0.00500,2.96890,0.00002,-0.00001,-0.00410,0.00906,0.14420,1.00095,69.29741,69.42483,68.99738,69.12480
8.20000,0.00127,0.00500,2.96887,0.00002,-0.00001,-0.00408,0.00859,0.14444,1.00095,69.29674,69.42416,68.99671,69.12413
8.20800,0.00127,0.00500,2.96884,0.00002,-0.00001,-0.00406,0.00812,0.14467,1.00094,69.29607,69.42348,68.99604,69.12346
8.21600,0.00127,0.00500,2.96880,0.00002,-0.00001,-0.00403,0.00765,0.14491,1.00094,69.29539,69.42281,68.99537,69.12278
8.22400,0.00127,0.00500,2.96877,0.00002,-0.00001,-0.00401,0.00718,0.14514,1.00093,69.29472,69.42213,68.99470,69.12211
8.23200,0.00127,0.00500,2.96874,0.00002,-0.00001,-0.00399,0.00671,0.14537,1.00093,69.29405,69.42146,68.99403,69.12144
8.24000,0.00127,0.00500,2.96871,0.00002,-0.00001,-0.00396,0.00624,0.14561,1.00093,69.29337,69.42079,68.99336,69.12077
8.24800,0.00127,0.00500,2.96867,0.00002,-0.00001,-0.00394,0.00577,0.14584,1.00093,69.29270,69.42011,68.99269,69.12010
8.25600,0.00127,0.00500,2.96864,0.00002,-0.00001,-0.00392,0.00530,0.14608,1.00093,69.29203,69.41944,68.99202,69.11943
8.26400,0.00127,0.00500,2.96861,0.00002,-0.00001,-0.00390,0.00483,0.14631,1.00093,69.29136,69.41877,68.99135,69.11876
8.27200,0.00127,0.00500,2.96858,0.00002,-0.00001,-0.00387,0.00436,0.14654,1.00093,69.29069,69.41810,68.99069,69.11810
8.28000,0.00127,0.00500,2.96855,0.00002,-0.00001,-0.00385,0.00389,0.14678,1.00094,69.29002,69.41743,68.99002,69.11743
8.28800,0.00127,0.00500,2.96852,0.00002,-0.00001,-0.00383,0.00342,0.14701,1.00094,69.28935,69.41676,68.98936,69.11676
8.29600,0.00127,0.00500,2.96849,0.00002,-0.00001,-0.00381,0.00295,0.14725,1.00095,69.28869,69.41609,68.98870,69.11610
8.30400,0.00127,0.00500,2.96846,0.00002,-0.00001,-0.00378,0.00248,0.14748,1.00095,69.28802,69.41543,68.98804,69.11544
8.31200,0.00127,0.00500,2.96843,0.00002,-0.00001,-0.00376,0.00200,0.14771,1.00096,69.28736,69.41476,68.98738,69.11478
8.32000,0.00127,0.00500,2.96840,0.00002,-0.00001,-0.00374,0.00153,0.14795,1.00097,69.28670,69.41410,68.98672,69.11412
8.32800,0.00127,0.00500,2.96837,0.00002,-0.00001,-0.00372,0.00106,0.14818,1.00098,69.28604,69.41344,68.98606,69.11346
8.33600,0.00127,0.00500,2.96834,0.00002,-0.00001,-0.00370,0.00058,0.14842,1.00099,69.28538,69.41278,68.98541,69.11280
8.34400,0.00127,0.00500,2.96831,0.00002,-0.00001,-0.00368,0.00011,0.14865,1.00100,69.28472,69.41212,68.98475,69.11215
8.35200,0.00127,0.00500,2.96828,0.00002,-0.00001,-0.00366,-0.00037,0.14888,1.00101,69.28407,69.41147,68.98410,69.11150
8.36000,0.00127,0.00500,2.96825,0.00002,-0.00001,-0.00363,-0.00084,0.14912,1.00102,69.28342,69.41081,68.98345,69.11085
8.36800,0.00127,0.00500,2.96822,0.00002,-0.00001,-0.00361,-0.00132,0.14935,1.00104,69.28277,69.41016,68.98280,69.11020
8.37600,0.00127,0.00500,2.96819,0.00002,-0.00001,-0.00359,-0.00179,0.14959,1.00105,69.28212,69.40951,68.98216,69.10955
8.38400,0.00127,0.00500,2.96816,0.00002,-0.00001,-0.00357,-0.00227,0.14982,1.00107,69.28147,69.40886,68.98152,69.10891
8.39200,0.00127,0.00500,2.96813,0.00002,-0.00001,-0.00355,-0.00274,0.15006,1.00108,69.28083,69.40822,68.98088,69.10826
8.40000,0.00127,0.00500,2.96811,0.00002,-0.00001,-0.00353,-0.00322,0.15029,1.00110,69.28019,69.40758,68.98024,69.10763
8.40800,0.00127,0.00500,2.96808,0.00002,-0.00001,-0.00351,-0.00370,0.15053,1.00112,69.27955,69.40694,68.97960,69.10699
8.41600,0.00127,0.00500,2.96805,0.00002,-0.00001,-0.00349,-0.00417,0.15076,1.00113,69.27891,69.40630,68.97897,69.10635
8.42400,0.00127,0.00500,2.96802,0.00002,-0.00001,-0.00347,-0.00465,0.15100,1.00115,69.27828,69.40566,68.97834,69.10572
8.43200,0.00127,0.00500,2.96799,0.00002,-0.00001,-0.00345,-0.00513,0.15123,1.00117,69.27765,69.40503,68.97771,69.10509
8.44000,0.00127,0.00500,2.96797,0.00002,-0.00001,-0.00343,-0.00561,0.15146,1.00119,69.27702,69.40440,68.97708,69.10447
8.44800,0.00127,0.00500,2.96794,0.00002,-0.00001,-0.00341,-0.00609,0.15170,1.00121,69.27640,69.40378,68.97646,69.10384
8.45600,0.00127,0.00500,2.96791,0.00002,-0.00001,-0.00339,-0.00656,0.15193,1.00124,69.27577,69.40315,68.97584,69.10322
8.46400,0.00127,0.00500,2.96788,0.00002,-0.00001,-0.00337,-0.00704,0.15217,1.00126,69.27515,69.40253,68.97522,69.10260
8.47200,0.00127,0.00500,2.96786,0.00002,-0.00001,-0.00335,-0.00752,0.15240,1.00128,69.27454,69.40191,68.97461,69.10199
8.48000,0.00127,0.00500,2.96783,0.00002,-0.00001,-0.00333,-0.00800,0.15264,1.00130,69.27392,69.40130,68.97400,69.10138
8.48800,0.00127,0.00500,2.96780,0.00002,-0.00001,-0.00331,-0.00848,0.15287,1.00133,69.27331,69.40069,68.97339,69.10077
8.49600,0.00127,0.00500,2.96778,0.00002,-0.00001,-0.00329,-0.00896,0.15311,1.00135,69.27271,69.40008,68.97279,69.10016
8.50400,0.00127,0.00500,2.96775,0.00002,-0.00001,-0.00327,-0.00944,0.15334,1.00138,69.27210,69.39948,68.97219,69.09956
8.51200,0.00127,0.00500,2.96773,0.00002,-0.00001,-0.00326,-0.00992,0.15358,1.00140,69.27150,69.39887,68.97159,69.09896
8.52000,0.00127,0.00500,2.96770,0.00002,-0.00001,-0.00324,-0.01040,0.15381,1.00143,69.27090,69.39828,68.97099,69.09836
8.52800,0.00127,0.00500,2.96767,0.00001,-0.00001,-0.00322,-0.01089,0.15405,1.00146,69.27031,69.39768,68.97040,69.09777
8.53600,0.00127,0.00500,2.96765,0.00001,-0.00001,-0.00320,-0.01137,0.15428,1.00148,69.26972,69.39709,68.96981,69.09718
8.54400,0.00127,0.00500,2.96762,0.00001,-0.00001,-0.00318,-0.01185,0.15452,1.00151,69.26913,69.39650,68.96923,69.09660
8.55200,0.00127,0.00500,2.96760,0.00001,-0.00001,-0.00316,-0.01233,0.15475,1.00154,69.26855,69.39592,68.96865,69.09602
8.56000,0.00127,0.00500,2.96757,0.00001,-0.00001,-0.00314,-0.01281,0.15499,1.00157,69.26797,69.39534,68.96807,69.09544
8.56800,0.00127,0.00500,2.96755,0.00001,-0.00001,-0.00313,-0.01330,0.15522,1.00160,69.26739,69.39476,68.96750,69.09486
8.57600,0.00127,0.00500,2.96752,0.00001,-0.00001,-0.00311,-0.01378,0.15546,1.00163,69.26682,69.39418,68.96693,69.09429
8.58400,0.00127,0.00500,2.96750,0.00001,-0.00001,-0.00309,-0.01426,0.15570,1.00166,69.26625,69.39361,68.96636,69.09372
8.59200,0.00127,0.00500,2.96747,0.00001,-0.00001,-0.00307,-0.01475,0.15593,1.00169,69.26569,69.39305,68.96580,69.09316
8.60000,0.00127,0.00500,2.96745,0.00001,-0.00001,-0.00305,-0.01523,0.15617,1.00172,69.26513,69.39249,68.96524,69.09260
8.60800,0.00127,0.00500,2.96742,0.00001,-0.00001,-0.00304,-0.01572,0.15640,1.00175,69.26457,69.39193,68.96468,69.09204
8.61600,0.00127,0.00500,2.96740,0.00001,-0.00001,-0.00302,-0.01620,0.15664,1.00178,69.26401,69.39137,68.96413,69.09149
8.62400,0.00127,0.00500,2.96737,0.00001,-0.00001,-0.00300,-0.01668,0.15687,1.00181,69.26346,69.39082,68.96358,69.09094
8.63200,0.00127,0.00500,2.96735,0.00001,-0.00001,-0.00298,-0.01717,0.15711,1.00184,69.26292,69.39027,68.96304,69.09040
8.64000,0.00127,0.00500,2.96733,0.00001,-0.00001,-0.00297,-0.01765,0.15734,1.00188,69.26238,69.38973,68.96250,69.08986
8.64800,0.00127,0.00500,2.96730,0.00001,-0.00001,-0.00295,-0.01814,0.15758,1.00191,69.26184,69.38919,68.96197,69.08932
8.65600,0.00127,0.00500,2.96728,0.00001,-0.00001,-0.00293,-0.01863,0.15781,1.00194,69.26130,69.38866,68.96143,69.08879
8.66400,0.00127,0.00500,2.96726,0.00001,-0.00001,-0.00291,-0.01911,0.15805,1.00198,69.26077,69.38813,68.96091,69.08826
8.67200,0.00127,0.00500,2.96723,0.00001,-0.00001,-0.00290,-0.01960,0.15829,1.00201,69.26025,69.38760,68.96038,69.08773
8.68000,0.00127,0.00500,2.96721,0.00001,-0.00001,-0.00288,-0.02009,0.15852,1.00204,69.25973,69.38708,68.95986,69.08721
8.68800,0.00127,0.00500,2.96719,0.00001,-0.00001,-0.00286,-0.02057,0.15876,1.00208,69.25921,69.38656,68.95935,69.08670
8.69600,0.00127,0.00500,2.96716,0.00001,-0.00001,-0.00285,-0.02106,0.15899,1.00211,69.25870,69.38604,68.95884,69.08618
8.70400,0.00127,0.00500,2.96714,0.00001,-0.00001,-0.00283,-0.02155,0.15923,1.00215,69.25819,69.38553,68.95833,69.08568
8.71200,0.00127,0.00500,2.96712,0.00001,-0.00001,-0.00281,-0.02203,0.15946,1.00218,69.25768,69.38503,68.95783,69.08517
8.72000,0.00127,0.00500,2.96710,0.00001,-0.00001,-0.00280,-0.02252,0.15970,1.00222,69.25718,69.38453,68.95733,69.08467
8.72800,0.00127,0.00500,2.96707,0.00001,-0.00001,-0.00278,-0.02301,0.15994,1.00225,69.25668,69.38403,68.95683,69.08418
8.73600,0.00127,0.00500,2.96705,0.00001,-0.00001,-0.00277,-0.02350,0.16017,1.00229,69.25619,69.38353,68.95634,69.08369
8.74400,0.00127,0.00500,2.96703,0.00001,-0.00001,-0.00275,-0.02399,0.16041,1.00232,69.25570,69.38305,68.95586,69.08320
8.75200,0.00127,0.00500,2.96701,0.00001,-0.00001,-0.00273,-0.02448,0.16064,1.00236,69.25522,69.38256,68.95537,69.08272
8.76000,0.00127,0.00500,2.96698,0.00001,-0.00001,-0.00272,-0.02497,0.16088,1.00240,69.25474,69.38208,68.95490,69.08224
8.76800,0.00127,0.00500,2.96696,0.00001,-0.00001,-0.00270,-0.02546,0.16112,1.00243,69.25426,69.38160,68.95442,69.08176
8.77600,0.00127,0.00500,2.96694,0.00001,-0.00001,-0.00269,-0.02595,0.16135,1.00247,69.25379,69.38113,68.95395,69.08129
8.78400,0.00127,0.00500,2.96692,0.00001,-0.00001,-0.00267,-0.02644,0.16159,1.00251,69.25332,69.38066,68.95349,69.08083
8.79200,0.00127,0.00500,2.96690,0.00001,-0.00001,-0.00265,-0.02693,0.16182,1.00254,69.25286,69.38020,68.95303,69.08037
8.80000,0.00127,0.00500,2.96688,0.00001,-0.00001,-0.00264,-0.02742,0.16206,1.00258,69.25240,69.37974,68.95257,69.07991
8.80800,0.00127,0.00500,2.96686,0.00001,-0.00001,-0.00262,-0.02791,0.16230,1.00262,69.25195,69.37929,68.95212,69.07946
8.81600,0.00127,0.00500,2.96684,0.00001,-0.00001,-0.00261,-0.02840,0.16253,1.00266,69.25150,69.37884,68.95167,69.07901
8.82400,0.00127,0.00500,2.96681,0.00001,-0.00001,-0.00259,-0.02889,0.16277,1.00269,69.25106,69.37839,68.95123,69.07857
8.83200,0.00127,0.00500,2.96679,0.00001,-0.00001,-0.00258,-0.02938,0.16300,1.00273,69.25062,69.37795,68.95079,69.07813
8.84000,0.00127,0.00500,2.96677,0.00001,-0.00001,-0.00256,-0.02987,0.16324,1.00277,69.25018,69.37751,68.95036,69.07769
8.84800,0.00127,0.00500,2.96675,0.00001,-0.00001,-0.00255,-0.03036,0.16348,1.00281,69.24975,69.37708,68.94993,69.07726
8.85600,0.00127,0.00500,2.96673,0.00001,-0.00001,-0.00253,-0.03086,0.16371,1.00284,69.24932,69.37665,68.94950,69.07683
8.86400,0.00127,0.00500,2.96671,0.00001,-0.00001,-0.00252,-0.03135,0.16395,1.00288,69.24890,69.37623,68.94908,69.07641
8.87200,0.00127,0.00500,2.96669,0.00001,-0.00001,-0.00250,-0.03184,0.16418,1.00292,69.24848,69.37581,68.94866,69.07599
8.88000,0.00127,0.00500,2.96667,0.00001,-0.00001,-0.00249,-0.03233,0.16442,1.00296,69.24806,69.37539,68.94825,69.07558
8.88800,0.00127,0.00500,2.96665,0.00001,-0.00001,-0.00247,-0.03283,0.16466,1.00300,69.24765,69.37498,68.94784,69.07517
8.89600,0.00127,0.00500,2.96663,0.00001,-0.00001,-0.00246,-0.03332,0.16489,1.00303,69.24725,69.37458,68.94744,69.07477
8.90400,0.00127,0.00500,2.96661,0.00001,-0.00001,-0.00244,-0.03381,0.16513,1.00307,69.24685,69.37417,68.94704,69.07437
8.91200,0.00127,0.00500,2.96659,0.00001,-0.00001,-0.00243,-0.03431,0.16537,1.00311,69.24645,69.37378,68.94665,69.07397
8.92000,0.00127,0.00500,2.96657,0.00001,-0.00001,-0.00242,-0.03480,0.16560,1.00315,69.24606,69.37338,68.94626,69.07358
8.92800,0.00127,0.00500,2.96655,0.00001,-0.00001,-0.00240,-0.03530,0.16584,1.00318,69.24567,69.37300,68.94587,69.07319
8.93600,0.00127,0.00500,2.96653,0.00001,-0.00001,-0.00239,-0.03579,0.16608,1.00322,69.24529,69.37261,68.94549,69.07281
8.94400,0.00127,0.00500,2.96652,0.00001,-0.00001,-0.00237,-0.03628,0.16631,1.00326,69.24491,69.37223,68.94511,69.07243
8.95200,0.00127,0.00500,2.96650,0.00001,-0.00001,-0.00236,-0.03678,0.16655,1.00330,69.24453,69.37186,68.94474,69.07206
8.96000,0.00127,0.00500,2.96648,0.00001,-0.00001,-0.00235,-0.03727,0.16679,1.00334,69.24416,69.37149,68.94437,69.07169
8.96800,0.00127,0.00500,2.96646,0.00001,-0.00001,-0.00233,-0.03777,0.16702,1.00337,69.24380,69.37112,68.94400,69.07133
8.97600,0.00127,0.00500,2.96644,0.00001,-0.00001,-0.00232,-0.03826,0.16726,1.00341,69.24344,69.37076,68.94364,69.07096
8.98400,0.00127,0.00500,2.96642,0.00001,-0.00001,-0.00230,-0.03876,0.16750,1.00345,69.24308,69.37040,68.94329,69.07061
8.99200,0.00127,0.00500,2.96640,0.00001,-0.00001,-0.00229,-0.03926,0.16773,1.00349,69.24273,69.37004,68.94294,69.07026
9.00000,0.00127,0.00500,2.96639,0.00001,-0.00001,-0.00228,-0.03975,0.16797,1.00353,69.24238,69.36970,68.94259,69.06991
9.00800,0.00127,0.00500,2.96637,0.00001,-0.00001,-0.00226,-0.04025,0.16821,1.00356,69.24203,69.36935,68.94225,69.06957
9.01600,0.00127,0.00500,2.96635,0.00001,-0.00001,-0.00225,-0.04075,0.16844,1.00360,69.24169,69.36901,68.94191,69.06923
9.02400,0.00127,0.00500,2.96633,0.00001,-0.00001,-0.00224,-0.04124,0.16868,1.00364,69.24136,69.36867,68.94157,69.06889
9.03200,0.00127,0.00500,2.96631,0.00001,-0.00001,-0.00222,-0.04174,0.16892,1.00368,69.24103,69.36834,68.94124,69.06856
9.04000,0.00127,0.00500,2.96630,0.00001,-0.00001,-0.00221,-0.04224,0.16915,1.00371,69.24070,69.36801,68.94092,69.06823
9.04800,0.00127,0.00500,2.96628,0.00001,-0.00001,-0.00220,-0.04273,0.16939,1.00375,69.24038,69.36769,68.94060,69.06791
9.05600,0.00127,0.00500,2.96626,0.00001,-0.00001,-0.00218,-0.04323,0.16963,1.00379,69.24006,69.36737,68.94028,69.06759
9.06400,0.00127,0.00500,2.96624,0.00001,-0.00001,-0.00217,-0.04373,0.16986,1.00382,69.23974,69.36706,68.93997,69.06728
9.07200,0.00127,0.00500,2.96623,0.00001,-0.00001,-0.00216,-0.04423,0.17010,1.00386,69.23943,69.36675,68.93966,69.06697
9.08000,0.00127,0.00500,2.96621,0.00001,-0.00001,-0.00215,-0.04472,0.17034,1.00390,69.23913,69.36644,68.93935,69.06667
9.08800,0.00127,0.00500,2.96619,0.00001,-0.00001,-0.00213,-0.04522,0.17058,1.00394,69.23883,69.36614,68.93905,69.06637
9.09600,0.00127,0.00500,2.96617,0.00001,-0.00001,-0.00212,-0.04572,0.17081,1.00397,69.23853,69.36584,68.93876,69.06607
